{
  "entry": "12808",
  "last_updated": "2006-07-20",
  "number_of_revisions": "3",
  "histories": [
    {
      "x4_code": "(830513C)",
      "free_txt": []
    },
    {
      "x4_code": "(840413A)",
      "free_txt": [
        "  TOTAL ERRORS MODIFIED"
      ]
    }
  ],
  "bib_record": {
    "title": "MEASUREMENT OF THE 242M-AM NEUTRON FISSION CROSS SECTION",
    "authors": [
      {
        "name": "J.W.T.Dabbs"
      },
      {
        "name": "C.E.Bemis Jr"
      },
      {
        "name": "S.Raman"
      },
      {
        "name": "R.J.Dougan"
      },
      {
        "name": "R.W.Hoff"
      }
    ],
    "institutes": [
      {
        "x4_code": "(1USAORL)",
        "free_txt": ""
      },
      {
        "x4_code": "(1USALRL)",
        "free_txt": ""
      }
    ],
    "references": [
      {
        "x4_code": "(J,NSE,84,1,8305)",
        "free_txt": [],
        "publication_year": "1983",
        "pointer": "0"
      },
      {
        "x4_code": "(P,ORNL-5787,186,8111)",
        "free_txt": [],
        "publication_year": "1981",
        "pointer": "0"
      }
    ],
    "facilities": [
      {
        "x4_code": "(LINAC,1USAORL)",
        "free_txt": [
          " ORELA"
        ],
        "pointer": "0",
        "facility_type": "(LINAC)",
        "institute": "(1USAORL)"
      }
    ]
  },
  "reactions": {
    "002": {
      "0": {
        "x4_code": "(95-AM-242-M(N,F),,SIG)",
        "children": [
          {
            "code": [
              "95-AM-242-M",
              [
                "N,F"
              ],
              ",,SIG"
            ],
            "type": null,
            "target": "95-AM-242-M",
            "process": "N,F",
            "sf49": ",,SIG",
            "sf4": null,
            "sf5": null,
            "sf6": "SIG",
            "sf7": null,
            "sf8": null,
            "sf9": null
          }
        ],
        "type": null,
        "free_text": ""
      }
    },
    "003": {
      "0": {
        "x4_code": "(95-AM-242-M(N,F),,SIG)",
        "children": [
          {
            "code": [
              "95-AM-242-M",
              [
                "N,F"
              ],
              ",,SIG"
            ],
            "type": null,
            "target": "95-AM-242-M",
            "process": "N,F",
            "sf49": ",,SIG",
            "sf4": null,
            "sf5": null,
            "sf6": "SIG",
            "sf7": null,
            "sf8": null,
            "sf9": null
          }
        ],
        "type": null,
        "free_text": ""
      }
    }
  },
  "data_tables": {
    "001": {
      "common": null
    },
    "002": {
      "common": {
        "heads": [
          "EN-NRM-MIN",
          "EN-NRM-MAX",
          "MONIT"
        ],
        "units": [
          "EV",
          "EV",
          "B*EV"
        ],
        "data": [
          [
            7.8
          ],
          [
            11.0
          ],
          [
            248.2
          ]
        ]
      },
      "data": {
        "heads": [
          "EN",
          "DATA",
          "ERR-T",
          "ERR-S"
        ],
        "units": [
          "EV",
          "B",
          "B",
          "B"
        ],
        "data": [
          [
            0.004563,
            0.00468,
            0.004802,
            0.004929,
            0.005061,
            0.005296,
            0.005649,
            0.006038,
            0.006469,
            0.006947,
            0.007481,
            0.008079,
            0.008751,
            0.009511,
            0.01037,
            0.01136,
            0.0125,
            0.01381,
            0.01534,
            0.0165,
            0.01718,
            0.0179,
            0.01867,
            0.01949,
            0.02037,
            0.0213,
            0.0223,
            0.02338,
            0.02453,
            0.02577,
            0.02711,
            0.02856,
            0.03012,
            0.03181,
            0.03366,
            0.03567,
            0.03786,
            0.04026,
            0.0429,
            0.0458,
            0.04902,
            0.05258,
            0.05654,
            0.06098,
            0.06595,
            0.07156,
            0.07791,
            0.08515,
            0.09346,
            0.103,
            0.1142,
            0.1272,
            0.1426,
            0.161,
            0.1832,
            0.2103,
            0.244,
            0.2661,
            0.2723,
            0.2779,
            0.2837,
            0.2896,
            0.2958,
            0.3021,
            0.3087,
            0.3155,
            0.3225,
            0.3298,
            0.3372,
            0.345,
            0.353,
            0.3613,
            0.3699,
            0.3788,
            0.3881,
            0.3976,
            0.4076,
            0.4179,
            0.4286,
            0.4397,
            0.4513,
            0.4633,
            0.4759,
            0.4889,
            0.5025,
            0.5166,
            0.5314,
            0.5468,
            0.5628,
            0.5796,
            0.5972,
            0.6156,
            0.6348,
            0.6549,
            0.6761,
            0.6982,
            0.7215,
            0.7459,
            0.7716,
            0.7987,
            0.8272,
            0.8573,
            0.889,
            0.9225,
            0.958,
            0.9956,
            1.035,
            1.078,
            1.122,
            1.17,
            1.221,
            1.275,
            1.333,
            1.395,
            1.462,
            1.533,
            1.61,
            1.671,
            1.715,
            1.759,
            1.806,
            1.854,
            1.904,
            1.956,
            2.01,
            2.067,
            2.126,
            2.188,
            2.252,
            2.319,
            2.389,
            2.463,
            2.54,
            2.604,
            2.653,
            2.705,
            2.757,
            2.811,
            2.867,
            2.925,
            2.984,
            3.045,
            3.108,
            3.173,
            3.24,
            3.309,
            3.381,
            3.454,
            3.531,
            3.609,
            3.691,
            3.755,
            3.8,
            3.847,
            3.894,
            3.943,
            3.992,
            4.042,
            4.093,
            4.145,
            4.198,
            4.252,
            4.307,
            4.363,
            4.421,
            4.479,
            4.539,
            4.599,
            4.661,
            4.725,
            4.789,
            4.855,
            4.923,
            4.991,
            5.061,
            5.133,
            5.206,
            5.281,
            5.357,
            5.435,
            5.515,
            5.597,
            5.68,
            5.765,
            5.852,
            5.941,
            6.033,
            6.126,
            6.221,
            6.319,
            6.419,
            6.521,
            6.61,
            6.673,
            6.727,
            6.781,
            6.837,
            6.893,
            6.949,
            7.007,
            7.065,
            7.124,
            7.183,
            7.244,
            7.305,
            7.366,
            7.429,
            7.492,
            7.557,
            7.622,
            7.688,
            7.754,
            7.822,
            7.891,
            7.96,
            8.03,
            8.102,
            8.174,
            8.247,
            8.321,
            8.397,
            8.473,
            8.55,
            8.628,
            8.708,
            8.788,
            8.87,
            8.953,
            9.037,
            9.122,
            9.208,
            9.296,
            9.385,
            9.475,
            9.566,
            9.659,
            9.753,
            9.849,
            9.945,
            10.04,
            10.14,
            10.24,
            10.35,
            10.45,
            10.56,
            10.67,
            10.77,
            10.89,
            11.0,
            11.11,
            11.19,
            11.24,
            11.28,
            11.32,
            11.37,
            11.41,
            11.46,
            11.5,
            11.55,
            11.6,
            11.64,
            11.69,
            11.74,
            11.78,
            11.83,
            11.88,
            11.93,
            11.97,
            12.02,
            12.07,
            12.12,
            12.17,
            12.22,
            12.27,
            12.32,
            12.37,
            12.42,
            12.47,
            12.52,
            12.58,
            12.63,
            12.68,
            12.73,
            12.79,
            12.84,
            12.89,
            12.95,
            13.0,
            13.06,
            13.11,
            13.17,
            13.22,
            13.28,
            13.34,
            13.39,
            13.45,
            13.51,
            13.57,
            13.63,
            13.69,
            13.74,
            13.8,
            13.86,
            13.92,
            13.99,
            14.05,
            14.11,
            14.17,
            14.23,
            14.3,
            14.36,
            14.42,
            14.49,
            14.55,
            14.62,
            14.68,
            14.75,
            14.81,
            14.88,
            14.95,
            15.02,
            15.08,
            15.15,
            15.22,
            15.29,
            15.36,
            15.43,
            15.5,
            15.57,
            15.65,
            15.72,
            15.79,
            15.87,
            15.94,
            16.01,
            16.09,
            16.16,
            16.24,
            16.32,
            16.39,
            16.47,
            16.55,
            16.63,
            16.71,
            16.79,
            16.87,
            16.95,
            17.03,
            17.11,
            17.2,
            17.28,
            17.37,
            17.45,
            17.54,
            17.62,
            17.71,
            17.8,
            17.88,
            17.97,
            18.06,
            18.15,
            18.24,
            18.33,
            18.42,
            18.52,
            18.61,
            18.7,
            18.8,
            18.9,
            18.99,
            19.09,
            19.19,
            19.28,
            19.38,
            19.48,
            19.58,
            19.69,
            19.79,
            19.89,
            20.0,
            20.1,
            20.21,
            20.31,
            20.42,
            20.53,
            20.64,
            20.75,
            20.86,
            20.97,
            21.08,
            21.19,
            21.31,
            21.42,
            21.54,
            21.66,
            21.78,
            21.89,
            22.02,
            22.14,
            22.26,
            22.38,
            22.51,
            22.63,
            22.76,
            22.88,
            23.01,
            23.14,
            23.27,
            23.4,
            23.54,
            23.67,
            23.81,
            23.94,
            24.08,
            24.22,
            24.36,
            24.5,
            24.64,
            24.78,
            24.93,
            25.07,
            25.22,
            25.37,
            25.52,
            25.67,
            25.82,
            25.98,
            26.13,
            26.29,
            26.43,
            26.54,
            26.62,
            26.7,
            26.78,
            26.86,
            26.94,
            27.02,
            27.11,
            27.19,
            27.27,
            27.36,
            27.44,
            27.52,
            27.61,
            27.69,
            27.78,
            27.86,
            27.95,
            28.04,
            28.12,
            28.21,
            28.3,
            28.39,
            28.47,
            28.56,
            28.65,
            28.74,
            28.83,
            28.92,
            29.01,
            29.1,
            29.2,
            29.29,
            29.38,
            29.47,
            29.57,
            29.66,
            29.76,
            29.85,
            29.95,
            30.04,
            30.14,
            30.24,
            30.33,
            30.43,
            30.53,
            30.63,
            30.73,
            30.83,
            30.93,
            31.03,
            31.13,
            31.23,
            31.33,
            31.43,
            31.54,
            31.64,
            31.75,
            31.85,
            31.96,
            32.06,
            32.17,
            32.27,
            32.38,
            32.49,
            32.6,
            32.71,
            32.82,
            32.93,
            33.04,
            33.15,
            33.26,
            33.37,
            33.48,
            33.6,
            33.71,
            33.83,
            33.94,
            34.06,
            34.17,
            34.29,
            34.41,
            34.53,
            34.64,
            34.76,
            34.88,
            35.0,
            35.12,
            35.25,
            35.37,
            35.49,
            35.62,
            35.74,
            35.87,
            35.99,
            36.12,
            36.24,
            36.37,
            36.5,
            36.63,
            36.76,
            36.89,
            37.02,
            37.15,
            37.28,
            37.42,
            37.55,
            37.69,
            37.82,
            37.96,
            38.09,
            38.23,
            38.37,
            38.51,
            38.65,
            38.79,
            38.93,
            39.07,
            39.22,
            39.36,
            39.5,
            39.65,
            39.8,
            39.94,
            40.09,
            40.24,
            40.39,
            40.54,
            40.69,
            40.84,
            40.99,
            41.15,
            41.3,
            41.46,
            41.61,
            41.77,
            41.93,
            42.09,
            42.25,
            42.41,
            42.57,
            42.73,
            42.9,
            43.06,
            43.23,
            43.39,
            43.56,
            43.73,
            43.9,
            44.07,
            44.24,
            44.41,
            44.58,
            44.76,
            44.93,
            45.11,
            45.29,
            45.47,
            45.64,
            45.83,
            46.01,
            46.19,
            46.37,
            46.56,
            46.74,
            46.93,
            47.12,
            47.31,
            47.5,
            47.69,
            47.88,
            48.08,
            48.27,
            48.47,
            48.67,
            48.86,
            49.06,
            49.27,
            49.47,
            49.67,
            49.88,
            50.08,
            50.29,
            50.5,
            50.71,
            50.92,
            51.13,
            51.35,
            51.56,
            51.78,
            52.0,
            52.22,
            52.44,
            52.66,
            52.88,
            53.11,
            53.34,
            53.56,
            53.79,
            54.02,
            54.26,
            54.49,
            54.73,
            54.96,
            55.2,
            55.44,
            55.68,
            55.93,
            56.17,
            56.42,
            56.67,
            56.92,
            57.17,
            57.42,
            57.68,
            57.93,
            58.19,
            58.45,
            58.71,
            58.97,
            59.24,
            59.51,
            59.78,
            60.05,
            60.32,
            60.59,
            60.87,
            61.15,
            61.43,
            61.71,
            61.99,
            62.28,
            62.57,
            62.86,
            63.15,
            63.44,
            63.74,
            64.04,
            64.34,
            64.64,
            64.94,
            65.25,
            65.56,
            65.87,
            66.18,
            66.5,
            66.81,
            67.13,
            67.46,
            67.78,
            68.11,
            68.44,
            68.77,
            69.1,
            69.44,
            69.78,
            70.12,
            70.46,
            70.81,
            71.16,
            71.51,
            71.86,
            72.22,
            72.58,
            72.94,
            73.31,
            73.68,
            74.05,
            74.42,
            74.79,
            75.17,
            75.56,
            75.94,
            76.33,
            76.72,
            77.11,
            77.51,
            77.91,
            78.31,
            78.72,
            79.13,
            79.54,
            79.95,
            80.37,
            80.8,
            81.22,
            81.65,
            82.08,
            82.52,
            82.96,
            83.4,
            83.85,
            84.3,
            84.75,
            85.21,
            85.67,
            86.13,
            86.6,
            87.07,
            87.55,
            88.03,
            88.51,
            89.0,
            89.49,
            89.99,
            90.49,
            90.99,
            91.5,
            92.01,
            92.53,
            93.05,
            93.58,
            94.11,
            94.64,
            95.18,
            95.73,
            96.28,
            96.83,
            97.39,
            97.95,
            98.52,
            99.09,
            99.67,
            100.3,
            100.8,
            101.4,
            102.0,
            102.6,
            103.2,
            103.9,
            104.5,
            105.1,
            105.7,
            106.2,
            106.5,
            106.9,
            107.2,
            107.5,
            107.8,
            108.2,
            108.5,
            108.8,
            109.2,
            109.5,
            109.8,
            110.2,
            110.5,
            110.8,
            111.2,
            111.5,
            111.9,
            112.2,
            112.6,
            112.9,
            113.3,
            113.6,
            114.0,
            114.3,
            114.7,
            115.0,
            115.4,
            115.8,
            116.1,
            116.5,
            116.9,
            117.2,
            117.6,
            118.0,
            118.3,
            118.7,
            119.1,
            119.5,
            119.9,
            120.2,
            120.6,
            121.0,
            121.4,
            121.8,
            122.2,
            122.6,
            123.0,
            123.4,
            123.8,
            124.2,
            124.6,
            125.0,
            125.4,
            125.8,
            126.2,
            126.6,
            127.1,
            127.5,
            127.9,
            128.3,
            128.8,
            129.2,
            129.6,
            130.0,
            130.5,
            130.9,
            131.4,
            131.8,
            132.2,
            132.7,
            133.1,
            133.6,
            134.0,
            134.5,
            134.9,
            135.4,
            135.9,
            136.3,
            136.8,
            137.3,
            137.7,
            138.2,
            138.7,
            139.1,
            139.6,
            140.1,
            140.6,
            141.1,
            141.6,
            142.1,
            142.6,
            143.1,
            143.6,
            144.1,
            144.6,
            145.1,
            145.6,
            146.1,
            146.6,
            147.2,
            147.9,
            148.6,
            149.3,
            150.0,
            150.8,
            151.5,
            152.2,
            152.9,
            153.7,
            154.4,
            155.2,
            155.9,
            156.7,
            157.5,
            158.2,
            159.0,
            159.8,
            160.6,
            161.4,
            162.2,
            163.0,
            163.8,
            164.6,
            165.4,
            166.3,
            167.1,
            167.9,
            168.8,
            169.7,
            170.5,
            171.4,
            172.3,
            173.1,
            174.0,
            174.9,
            175.8,
            176.7,
            177.7,
            178.6,
            179.5,
            180.5,
            181.4,
            182.4,
            183.3,
            184.3,
            185.3,
            186.3,
            187.2,
            188.2,
            189.3,
            190.3,
            191.3,
            192.3,
            193.4,
            194.4,
            195.5,
            196.6,
            197.6,
            198.7,
            199.8,
            200.9,
            202.0,
            203.1,
            204.3,
            205.4,
            206.6,
            207.7,
            208.9,
            210.1,
            211.3,
            212.5,
            213.7,
            214.9,
            216.1,
            217.4,
            218.6,
            219.9,
            221.2,
            222.4,
            223.7,
            225.0,
            226.4,
            227.7,
            229.0,
            230.4,
            231.8,
            233.1,
            234.5,
            235.9,
            237.4,
            238.8,
            240.2,
            241.7,
            243.1,
            244.6,
            246.1,
            247.6,
            249.2,
            250.7,
            252.2,
            253.8,
            255.4,
            257.0,
            258.6,
            260.2,
            261.9,
            263.5,
            265.2,
            266.9,
            268.6,
            270.3,
            272.0,
            273.8,
            275.6,
            277.4,
            279.2,
            281.0,
            282.8,
            284.7,
            286.6,
            288.5,
            290.4,
            292.3,
            294.3,
            296.2,
            298.2,
            300.2,
            302.3,
            304.3,
            306.4,
            308.5,
            310.6,
            312.8,
            314.9,
            317.1,
            319.3,
            321.5,
            323.8,
            326.1,
            328.4,
            330.7,
            333.1,
            335.4,
            337.8,
            340.3,
            342.7,
            345.2,
            347.7,
            350.3,
            352.8,
            355.4,
            358.0,
            360.7,
            363.4,
            366.1,
            368.8,
            371.6,
            374.4,
            377.2,
            380.1,
            383.0,
            385.9,
            388.9,
            391.9,
            394.9,
            398.0,
            401.1,
            404.2,
            407.4,
            410.6,
            413.9,
            417.2,
            420.5,
            423.8,
            426.0,
            426.9,
            427.7,
            428.6,
            429.5,
            430.3,
            431.2,
            432.1,
            433.0,
            433.8,
            434.7,
            435.6,
            436.5,
            437.4,
            438.3,
            439.2,
            440.0,
            440.9,
            441.8,
            442.8,
            443.7,
            444.6,
            445.5,
            446.4,
            447.3,
            448.2,
            449.2,
            450.1,
            451.0,
            452.0,
            452.9,
            453.8,
            454.8,
            455.7,
            456.7,
            457.6,
            458.6,
            459.5,
            460.5,
            461.4,
            462.4,
            463.4,
            464.4,
            465.3,
            466.3,
            467.3,
            468.3,
            469.3,
            470.2,
            471.2,
            472.2,
            473.2,
            474.2,
            475.2,
            476.3,
            477.3,
            478.3,
            479.3,
            480.3,
            481.3,
            482.4,
            483.4,
            484.4,
            485.5,
            486.5,
            487.6,
            488.6,
            489.7,
            490.7,
            491.8,
            492.8,
            493.9,
            495.0,
            496.1,
            497.1,
            498.2,
            499.3,
            500.4,
            501.5,
            502.6,
            503.7,
            504.8,
            505.9,
            507.0,
            508.1,
            509.2,
            510.3,
            511.4,
            512.6,
            513.7,
            514.8,
            516.0,
            517.1,
            518.3,
            519.4,
            520.6,
            521.7,
            522.9,
            524.1,
            525.2,
            526.4,
            527.6,
            528.8,
            529.9,
            531.1,
            532.3,
            533.5,
            534.7,
            535.9,
            537.1,
            538.3,
            539.6,
            540.8,
            542.0,
            543.2,
            544.5,
            545.7,
            546.9,
            548.2,
            549.4,
            550.7,
            552.0,
            553.2,
            554.5,
            555.8,
            557.0,
            558.3,
            559.6,
            560.9,
            562.2,
            563.5,
            564.8,
            566.1,
            567.4,
            568.7,
            570.0,
            571.4,
            572.7,
            574.0,
            575.4,
            576.7,
            578.1,
            579.4,
            580.8,
            582.1,
            583.5,
            584.9,
            586.3,
            587.6,
            589.0,
            590.4,
            591.8,
            593.2,
            594.6,
            596.0,
            597.5,
            598.9,
            600.3,
            601.8,
            603.2,
            604.6,
            606.1,
            607.5,
            609.0,
            610.5,
            611.9,
            613.4,
            614.9,
            616.4,
            617.9,
            619.4,
            620.9,
            622.4,
            623.9,
            625.4,
            626.9,
            628.4,
            630.0,
            631.5,
            633.1,
            634.6,
            636.2,
            637.7,
            639.3,
            640.9,
            642.5,
            644.1,
            645.6,
            647.2,
            648.9,
            650.5,
            652.1,
            653.7,
            655.3,
            657.0,
            658.6,
            660.3,
            661.9,
            663.6,
            665.2,
            666.9,
            668.6,
            670.3,
            672.0,
            673.7,
            675.4,
            677.1,
            678.8,
            680.5,
            682.2,
            684.0,
            685.7,
            687.5,
            689.2,
            691.0,
            692.8,
            694.5,
            696.3,
            698.1,
            699.9,
            701.7,
            703.5,
            705.3,
            707.2,
            709.0,
            710.8,
            712.7,
            714.5,
            716.4,
            718.3,
            720.1,
            722.0,
            723.9,
            725.8,
            727.7,
            729.6,
            731.6,
            733.5,
            735.4,
            737.4,
            739.3,
            741.3,
            743.2,
            745.2,
            747.2,
            749.2,
            751.2,
            753.2,
            755.2,
            757.2,
            759.3,
            761.3,
            763.3,
            765.4,
            767.5,
            769.5,
            771.6,
            773.7,
            775.8,
            777.9,
            780.0,
            782.1,
            784.3,
            786.4,
            788.6,
            790.7,
            792.9,
            795.1,
            797.2,
            799.4,
            801.6,
            803.9,
            806.1,
            808.3,
            810.5,
            812.8,
            815.1,
            817.3,
            819.6,
            821.9,
            824.2,
            826.5,
            828.8,
            831.1,
            833.5,
            835.8,
            838.2,
            840.5,
            842.9,
            845.3,
            847.7,
            850.1,
            852.5,
            854.9,
            857.4,
            859.8,
            862.3,
            864.7,
            867.2,
            869.7,
            872.2,
            874.7,
            877.2,
            879.8,
            882.3,
            884.9,
            887.4,
            890.0,
            892.6,
            895.2,
            897.8,
            900.4,
            903.1,
            905.7,
            908.4,
            911.0,
            913.7,
            916.4,
            919.1,
            921.8,
            924.6,
            927.3,
            930.0,
            932.8,
            935.6,
            938.4,
            941.2,
            944.0,
            946.8,
            949.7,
            952.5,
            955.4,
            958.3,
            961.2,
            964.1,
            967.0,
            969.9,
            972.8,
            975.8,
            978.8,
            981.8,
            984.8,
            987.8,
            990.8,
            993.8,
            996.9,
            1000.0,
            1003.0,
            1006.0,
            1009.0,
            1012.0,
            1016.0,
            1019.0,
            1022.0,
            1025.0,
            1028.0,
            1031.0,
            1035.0,
            1038.0,
            1041.0,
            1044.0,
            1048.0,
            1051.0,
            1054.0,
            1058.0,
            1061.0,
            1064.0,
            1068.0,
            1071.0,
            1075.0,
            1078.0,
            1082.0,
            1085.0,
            1088.0,
            1092.0,
            1095.0,
            1099.0,
            1103.0,
            1106.0,
            1110.0,
            1113.0,
            1117.0,
            1121.0,
            1124.0,
            1128.0,
            1132.0,
            1135.0,
            1139.0,
            1143.0,
            1147.0,
            1150.0,
            1154.0,
            1158.0,
            1162.0,
            1166.0,
            1170.0,
            1173.0,
            1177.0,
            1181.0,
            1185.0,
            1189.0,
            1193.0,
            1197.0,
            1201.0,
            1205.0,
            1209.0,
            1214.0,
            1218.0,
            1222.0,
            1226.0,
            1230.0,
            1234.0,
            1239.0,
            1243.0,
            1247.0,
            1251.0,
            1256.0,
            1260.0,
            1264.0,
            1269.0,
            1273.0,
            1278.0,
            1282.0,
            1287.0,
            1291.0,
            1296.0,
            1300.0,
            1305.0,
            1309.0,
            1314.0,
            1319.0,
            1323.0,
            1328.0,
            1333.0,
            1337.0,
            1342.0,
            1347.0,
            1352.0,
            1357.0,
            1362.0,
            1366.0,
            1371.0,
            1376.0,
            1381.0,
            1386.0,
            1391.0,
            1396.0,
            1401.0,
            1407.0,
            1412.0,
            1417.0,
            1422.0,
            1427.0,
            1433.0,
            1438.0,
            1443.0,
            1449.0,
            1454.0,
            1459.0,
            1465.0,
            1470.0,
            1476.0,
            1481.0,
            1487.0,
            1492.0,
            1498.0,
            1504.0,
            1509.0,
            1515.0,
            1521.0,
            1527.0,
            1532.0,
            1538.0,
            1544.0,
            1550.0,
            1556.0,
            1562.0,
            1568.0,
            1574.0,
            1580.0,
            1586.0,
            1593.0,
            1599.0,
            1605.0,
            1611.0,
            1618.0,
            1624.0,
            1630.0,
            1637.0,
            1643.0,
            1650.0,
            1656.0,
            1663.0,
            1669.0,
            1676.0,
            1683.0,
            1689.0,
            1696.0,
            1703.0,
            1710.0,
            1717.0,
            1724.0,
            1731.0,
            1738.0,
            1745.0,
            1752.0,
            1759.0,
            1766.0,
            1773.0,
            1781.0,
            1788.0,
            1795.0,
            1803.0,
            1810.0,
            1818.0,
            1825.0,
            1833.0,
            1841.0,
            1848.0,
            1856.0,
            1864.0,
            1872.0,
            1880.0,
            1888.0,
            1896.0,
            1904.0,
            1912.0,
            1920.0,
            1928.0,
            1936.0,
            1945.0,
            1953.0,
            1962.0,
            1970.0,
            1979.0,
            1987.0,
            1996.0,
            2005.0,
            2013.0,
            2025.0,
            2049.0,
            2081.0,
            2114.0,
            2147.0,
            2181.0,
            2216.0,
            2252.0,
            2289.0,
            2327.0,
            2366.0,
            2405.0,
            2446.0,
            2488.0,
            2530.0,
            2574.0,
            2619.0,
            2666.0,
            2713.0,
            2762.0,
            2812.0,
            2863.0,
            2916.0,
            2971.0,
            3027.0,
            3084.0,
            3143.0,
            3204.0,
            3267.0,
            3331.0,
            3398.0,
            3466.0,
            3537.0,
            3609.0,
            3684.0,
            3762.0,
            3841.0,
            3924.0,
            4009.0,
            4096.0,
            4187.0,
            4281.0,
            4378.0,
            4478.0,
            4582.0,
            4690.0,
            4801.0,
            4916.0,
            5036.0,
            5159.0,
            5288.0,
            5421.0,
            5560.0,
            5704.0,
            5853.0,
            6009.0,
            6170.0,
            6339.0,
            6514.0,
            6697.0,
            6872.0,
            6978.0,
            7027.0,
            7078.0,
            7129.0,
            7180.0,
            7232.0,
            7285.0,
            7338.0,
            7404.0,
            7482.0,
            7561.0,
            7642.0,
            7723.0,
            7807.0,
            7891.0,
            7977.0,
            8064.0,
            8153.0,
            8243.0,
            8335.0,
            8428.0,
            8523.0,
            8620.0,
            8718.0,
            8818.0,
            8919.0,
            9023.0,
            9128.0,
            9235.0,
            9343.0,
            9454.0,
            9567.0,
            9682.0,
            9799.0,
            9918.0,
            10040.0,
            10160.0,
            10290.0,
            10420.0,
            10550.0,
            10680.0,
            10810.0,
            10950.0,
            11090.0,
            11240.0,
            11380.0,
            11530.0,
            11680.0,
            11840.0,
            12000.0,
            12160.0,
            12320.0,
            12490.0,
            12660.0,
            12840.0,
            13020.0,
            13220.0,
            13460.0,
            13700.0,
            13940.0,
            14200.0,
            14460.0,
            14730.0,
            15000.0,
            15280.0,
            15580.0,
            15880.0,
            16180.0,
            16500.0,
            16830.0,
            17160.0,
            17510.0,
            17870.0,
            18240.0,
            18620.0,
            19010.0,
            19410.0,
            19830.0,
            20260.0,
            20710.0,
            21170.0,
            21650.0,
            22140.0,
            22650.0,
            23170.0,
            23720.0,
            24290.0,
            24870.0,
            25480.0,
            26110.0,
            26760.0,
            27440.0,
            28140.0,
            28870.0,
            29630.0,
            30420.0,
            31250.0,
            32100.0,
            33000.0,
            33930.0,
            34900.0,
            35910.0,
            36970.0,
            38070.0,
            39220.0,
            40430.0,
            41700.0,
            43020.0,
            44410.0,
            45870.0,
            47400.0,
            49010.0,
            50700.0,
            52480.0,
            54360.0,
            56330.0,
            58420.0,
            60630.0,
            62960.0,
            65440.0,
            68060.0,
            70840.0,
            73790.0,
            76940.0,
            80280.0,
            83860.0,
            87670.0,
            91760.0,
            96130.0,
            100800.0
          ],
          [
            15010.0,
            14130.0,
            14260.0,
            13720.0,
            13730.0,
            13330.0,
            12840.0,
            12250.0,
            12040.0,
            11580.0,
            11350.0,
            11030.0,
            10670.0,
            10340.0,
            10060.0,
            9520.0,
            9059.0,
            8817.0,
            8437.0,
            8298.0,
            8019.0,
            7976.0,
            7812.0,
            7717.0,
            7559.0,
            7427.0,
            7260.0,
            7133.0,
            7012.0,
            6908.0,
            6789.0,
            6684.0,
            6601.0,
            6476.0,
            6361.0,
            6260.0,
            6120.0,
            6044.0,
            5983.0,
            5890.0,
            5773.0,
            5759.0,
            5711.0,
            5668.0,
            5621.0,
            5591.0,
            5555.0,
            5589.0,
            5614.0,
            5660.0,
            5703.0,
            5782.0,
            5848.0,
            5820.0,
            5575.0,
            5021.0,
            4142.0,
            3569.0,
            3494.0,
            3309.0,
            3221.0,
            3085.0,
            2957.0,
            2869.0,
            2697.0,
            2651.0,
            2523.0,
            2392.0,
            2318.0,
            2220.0,
            2126.0,
            2049.0,
            1925.0,
            1859.0,
            1794.0,
            1713.0,
            1585.0,
            1529.0,
            1484.0,
            1444.0,
            1396.0,
            1361.0,
            1344.0,
            1323.0,
            1322.0,
            1328.0,
            1350.0,
            1371.0,
            1414.0,
            1456.0,
            1484.0,
            1480.0,
            1418.0,
            1322.0,
            1202.0,
            1091.0,
            990.1,
            905.8,
            838.8,
            787.6,
            745.4,
            711.9,
            686.7,
            660.4,
            637.6,
            619.2,
            608.7,
            590.9,
            578.2,
            558.5,
            530.5,
            496.9,
            462.7,
            432.8,
            404.3,
            389.1,
            404.0,
            420.6,
            416.9,
            400.7,
            378.8,
            366.2,
            366.6,
            391.7,
            423.5,
            454.4,
            445.9,
            407.8,
            342.3,
            271.1,
            214.2,
            181.0,
            166.6,
            168.8,
            173.6,
            189.3,
            214.4,
            241.7,
            284.9,
            332.7,
            384.3,
            443.2,
            501.3,
            541.6,
            548.7,
            530.2,
            482.5,
            411.8,
            326.4,
            249.2,
            208.9,
            213.8,
            240.8,
            290.9,
            361.8,
            439.9,
            482.1,
            485.3,
            459.4,
            443.9,
            454.5,
            473.4,
            451.9,
            367.1,
            295.8,
            264.0,
            240.2,
            216.4,
            192.7,
            175.5,
            164.1,
            156.4,
            157.4,
            166.4,
            182.7,
            211.6,
            247.6,
            300.6,
            338.1,
            304.1,
            269.2,
            258.6,
            256.3,
            271.7,
            322.6,
            338.1,
            291.2,
            227.6,
            171.5,
            127.6,
            117.9,
            166.4,
            219.5,
            216.4,
            194.1,
            163.7,
            141.5,
            123.8,
            116.0,
            104.8,
            99.52,
            90.82,
            86.6,
            79.87,
            72.86,
            67.37,
            60.09,
            54.37,
            50.32,
            50.65,
            52.6,
            57.66,
            66.36,
            74.31,
            79.48,
            85.34,
            86.82,
            84.45,
            76.81,
            76.62,
            79.03,
            83.29,
            88.19,
            87.75,
            91.26,
            92.92,
            97.7,
            101.3,
            98.35,
            94.15,
            96.8,
            107.2,
            119.3,
            93.23,
            65.77,
            64.83,
            74.19,
            79.59,
            76.02,
            67.72,
            60.7,
            58.87,
            58.81,
            63.46,
            72.89,
            81.68,
            86.46,
            85.7,
            80.18,
            76.77,
            80.33,
            83.51,
            93.16,
            103.8,
            117.1,
            115.0,
            103.2,
            91.86,
            85.8,
            90.04,
            95.73,
            107.3,
            120.2,
            131.4,
            137.8,
            140.7,
            139.7,
            130.2,
            121.5,
            112.6,
            103.7,
            101.9,
            100.6,
            107.9,
            117.9,
            140.0,
            168.8,
            202.9,
            238.5,
            258.2,
            259.6,
            250.3,
            227.8,
            213.9,
            212.6,
            217.9,
            238.2,
            254.2,
            253.2,
            252.5,
            241.7,
            242.6,
            258.5,
            276.6,
            280.4,
            269.5,
            225.0,
            191.0,
            166.9,
            148.5,
            136.4,
            134.4,
            120.8,
            115.2,
            103.9,
            91.88,
            86.21,
            84.79,
            88.28,
            128.6,
            132.2,
            178.0,
            171.2,
            183.2,
            165.3,
            136.0,
            117.2,
            103.1,
            96.34,
            91.57,
            86.57,
            90.91,
            94.03,
            97.52,
            97.6,
            94.46,
            99.86,
            120.8,
            139.7,
            154.9,
            153.9,
            139.4,
            135.1,
            132.4,
            129.5,
            131.6,
            130.6,
            129.8,
            140.6,
            154.5,
            165.9,
            166.7,
            173.4,
            186.7,
            200.8,
            203.3,
            192.5,
            168.8,
            153.3,
            136.1,
            131.2,
            135.2,
            140.1,
            137.4,
            130.9,
            121.9,
            115.8,
            113.2,
            104.9,
            95.77,
            98.02,
            112.1,
            140.4,
            161.5,
            167.7,
            157.4,
            147.0,
            148.0,
            171.5,
            201.0,
            237.0,
            242.0,
            231.4,
            209.6,
            185.9,
            163.5,
            155.7,
            163.9,
            178.2,
            185.2,
            166.1,
            139.6,
            114.5,
            96.29,
            84.1,
            79.96,
            87.22,
            94.63,
            102.9,
            117.1,
            132.2,
            140.6,
            151.4,
            152.1,
            132.8,
            112.9,
            120.9,
            139.9,
            148.3,
            144.3,
            149.2,
            158.3,
            131.0,
            100.5,
            99.78,
            105.5,
            88.42,
            67.54,
            58.57,
            57.32,
            55.34,
            47.33,
            35.11,
            26.46,
            25.78,
            26.02,
            30.72,
            36.94,
            47.24,
            63.75,
            77.13,
            75.25,
            65.26,
            64.31,
            67.29,
            62.08,
            46.96,
            38.21,
            38.6,
            50.24,
            73.96,
            104.4,
            154.1,
            209.5,
            249.4,
            264.5,
            285.7,
            270.2,
            238.8,
            189.6,
            143.9,
            108.2,
            94.37,
            95.8,
            96.83,
            95.75,
            94.06,
            92.37,
            95.43,
            113.1,
            132.0,
            148.4,
            156.6,
            165.6,
            186.8,
            205.8,
            227.3,
            212.6,
            201.6,
            192.7,
            188.2,
            176.5,
            176.1,
            185.8,
            187.8,
            178.7,
            167.2,
            155.6,
            147.8,
            149.0,
            139.4,
            114.9,
            91.78,
            84.9,
            87.56,
            84.49,
            73.34,
            61.81,
            50.8,
            48.13,
            54.08,
            61.59,
            74.84,
            81.9,
            77.8,
            67.52,
            55.44,
            55.25,
            63.73,
            75.27,
            73.8,
            59.56,
            47.09,
            43.83,
            45.05,
            49.88,
            51.87,
            50.75,
            47.74,
            41.05,
            36.35,
            33.82,
            46.33,
            68.42,
            90.08,
            105.7,
            109.2,
            104.5,
            96.6,
            89.98,
            86.22,
            85.19,
            98.77,
            120.7,
            144.8,
            154.4,
            146.6,
            145.5,
            147.3,
            161.8,
            164.8,
            164.2,
            169.9,
            182.7,
            198.7,
            217.5,
            235.0,
            215.1,
            165.6,
            113.5,
            75.74,
            65.81,
            68.0,
            82.57,
            113.7,
            148.2,
            170.6,
            172.9,
            151.1,
            115.7,
            76.73,
            51.49,
            39.34,
            44.2,
            67.11,
            90.73,
            100.4,
            95.56,
            89.33,
            88.46,
            88.9,
            101.4,
            120.1,
            138.5,
            117.5,
            85.16,
            53.64,
            43.46,
            45.8,
            53.8,
            74.59,
            88.44,
            83.64,
            69.03,
            53.48,
            55.68,
            72.39,
            80.64,
            68.11,
            52.32,
            44.7,
            50.42,
            55.74,
            46.76,
            37.23,
            26.05,
            21.18,
            20.8,
            20.37,
            20.78,
            20.24,
            18.56,
            15.68,
            14.65,
            16.57,
            23.23,
            30.73,
            36.56,
            39.93,
            43.32,
            53.64,
            62.89,
            56.86,
            43.37,
            39.98,
            41.82,
            40.47,
            41.45,
            43.85,
            53.66,
            75.95,
            105.1,
            124.8,
            117.1,
            104.5,
            119.9,
            147.6,
            132.6,
            96.64,
            89.99,
            123.3,
            170.0,
            171.0,
            137.0,
            117.3,
            108.4,
            90.61,
            81.97,
            94.55,
            99.75,
            83.76,
            68.66,
            54.69,
            43.09,
            44.42,
            64.17,
            101.5,
            145.4,
            153.5,
            136.2,
            122.4,
            101.5,
            92.61,
            82.85,
            74.94,
            88.64,
            103.0,
            97.52,
            108.5,
            112.7,
            88.11,
            63.75,
            53.41,
            52.49,
            55.18,
            73.59,
            92.28,
            85.03,
            55.91,
            40.1,
            40.6,
            61.96,
            85.39,
            78.89,
            52.53,
            51.09,
            63.74,
            66.42,
            57.21,
            57.29,
            77.57,
            103.1,
            80.66,
            63.01,
            60.6,
            58.05,
            65.23,
            75.68,
            81.25,
            95.08,
            113.1,
            94.36,
            51.57,
            43.91,
            58.32,
            65.57,
            71.38,
            72.11,
            60.87,
            39.58,
            29.27,
            34.05,
            42.26,
            54.98,
            63.11,
            61.07,
            57.25,
            52.63,
            53.14,
            66.05,
            61.35,
            54.84,
            55.68,
            64.04,
            80.79,
            100.1,
            87.87,
            52.9,
            41.21,
            54.39,
            69.61,
            67.53,
            46.97,
            42.25,
            45.63,
            46.93,
            29.08,
            21.96,
            40.35,
            74.41,
            71.12,
            52.59,
            65.87,
            74.22,
            46.15,
            30.89,
            28.75,
            33.51,
            38.76,
            49.72,
            49.71,
            43.5,
            53.55,
            50.56,
            47.39,
            37.55,
            47.85,
            68.58,
            64.78,
            64.24,
            81.12,
            67.82,
            33.27,
            34.23,
            42.67,
            35.89,
            32.84,
            46.9,
            65.96,
            50.24,
            47.56,
            78.86,
            99.81,
            91.71,
            69.13,
            50.99,
            56.09,
            67.89,
            54.86,
            39.82,
            30.89,
            29.29,
            40.95,
            50.47,
            80.03,
            67.66,
            45.41,
            69.19,
            94.94,
            62.9,
            42.78,
            46.59,
            46.87,
            37.21,
            53.19,
            69.82,
            74.17,
            59.66,
            44.08,
            36.2,
            32.23,
            27.38,
            29.27,
            41.12,
            53.75,
            64.51,
            66.65,
            58.91,
            45.2,
            37.94,
            34.44,
            40.61,
            45.24,
            38.15,
            34.97,
            37.96,
            44.4,
            53.8,
            51.66,
            53.58,
            49.41,
            47.73,
            51.57,
            55.87,
            43.57,
            27.45,
            20.92,
            23.39,
            25.16,
            21.12,
            17.99,
            16.8,
            27.11,
            46.85,
            53.28,
            53.47,
            51.22,
            46.26,
            43.37,
            46.57,
            46.5,
            38.93,
            28.27,
            20.12,
            27.67,
            40.68,
            46.03,
            42.59,
            39.18,
            35.49,
            31.17,
            33.8,
            34.23,
            34.93,
            35.48,
            40.98,
            37.13,
            30.18,
            23.95,
            29.11,
            43.7,
            51.33,
            50.1,
            50.89,
            46.6,
            33.43,
            29.0,
            33.05,
            47.47,
            66.24,
            73.42,
            59.19,
            53.98,
            57.18,
            54.51,
            43.56,
            43.19,
            37.43,
            27.06,
            19.34,
            20.03,
            21.31,
            22.32,
            29.13,
            38.81,
            49.44,
            56.8,
            57.82,
            47.96,
            32.34,
            23.64,
            18.5,
            14.83,
            17.3,
            26.51,
            44.91,
            59.79,
            56.47,
            35.18,
            27.03,
            32.72,
            32.75,
            37.37,
            37.69,
            40.72,
            47.15,
            44.39,
            44.7,
            42.26,
            37.09,
            38.86,
            48.45,
            49.89,
            41.3,
            39.75,
            27.36,
            19.85,
            25.56,
            31.65,
            32.43,
            33.82,
            43.7,
            55.76,
            48.58,
            33.56,
            33.25,
            31.82,
            43.69,
            54.0,
            60.14,
            42.04,
            45.04,
            49.58,
            46.97,
            49.26,
            49.63,
            55.97,
            34.41,
            17.53,
            15.66,
            22.59,
            33.25,
            41.98,
            55.53,
            45.66,
            48.12,
            48.08,
            26.06,
            19.91,
            24.85,
            37.35,
            43.38,
            41.62,
            55.11,
            48.02,
            49.82,
            52.56,
            75.77,
            58.48,
            34.05,
            24.18,
            25.78,
            35.52,
            49.21,
            36.11,
            40.96,
            39.68,
            27.82,
            34.67,
            42.88,
            28.45,
            27.98,
            40.07,
            36.99,
            44.1,
            51.55,
            30.79,
            31.69,
            41.79,
            49.13,
            33.33,
            18.45,
            24.99,
            33.06,
            52.32,
            51.52,
            31.62,
            30.75,
            41.67,
            47.01,
            42.92,
            19.37,
            18.15,
            24.76,
            26.68,
            22.35,
            35.35,
            49.54,
            51.03,
            44.08,
            45.67,
            39.27,
            31.38,
            31.71,
            31.53,
            46.8,
            41.99,
            43.68,
            35.98,
            32.01,
            24.38,
            27.61,
            34.2,
            30.27,
            25.95,
            34.3,
            33.58,
            35.86,
            28.71,
            20.2,
            22.36,
            23.72,
            17.17,
            23.62,
            29.22,
            30.76,
            30.95,
            34.86,
            17.84,
            15.45,
            17.66,
            21.43,
            19.67,
            22.17,
            31.79,
            37.61,
            29.99,
            36.48,
            32.59,
            24.24,
            16.71,
            17.65,
            32.12,
            30.88,
            35.37,
            29.22,
            18.93,
            26.21,
            25.7,
            27.42,
            20.18,
            16.45,
            25.56,
            26.73,
            17.9,
            15.78,
            10.52,
            19.16,
            25.86,
            19.74,
            21.32,
            28.22,
            25.88,
            19.28,
            25.91,
            17.93,
            17.46,
            17.81,
            18.7,
            18.54,
            15.53,
            15.12,
            15.8,
            16.54,
            17.9,
            19.4,
            22.73,
            26.8,
            28.36,
            28.81,
            26.04,
            23.23,
            18.93,
            20.68,
            19.89,
            21.13,
            23.98,
            26.29,
            30.06,
            36.73,
            38.98,
            34.89,
            32.33,
            25.34,
            22.15,
            22.94,
            23.39,
            22.71,
            21.21,
            18.98,
            17.8,
            19.16,
            20.48,
            21.84,
            24.36,
            28.38,
            30.79,
            30.16,
            26.48,
            24.41,
            18.78,
            17.61,
            14.38,
            19.04,
            18.1,
            18.38,
            18.35,
            20.73,
            21.63,
            19.39,
            16.65,
            15.18,
            14.79,
            16.4,
            18.26,
            19.75,
            20.14,
            19.41,
            18.19,
            17.27,
            16.93,
            17.74,
            19.99,
            24.27,
            25.11,
            26.76,
            27.93,
            25.77,
            27.92,
            26.91,
            26.29,
            23.46,
            22.92,
            22.42,
            24.04,
            24.62,
            21.97,
            20.53,
            18.95,
            20.26,
            20.33,
            21.53,
            22.43,
            23.48,
            22.74,
            22.39,
            21.48,
            20.82,
            23.6,
            24.5,
            26.53,
            22.29,
            20.37,
            18.77,
            15.99,
            17.58,
            19.37,
            18.05,
            18.38,
            17.09,
            18.39,
            20.52,
            19.81,
            20.12,
            17.69,
            15.52,
            17.07,
            16.36,
            16.23,
            17.77,
            17.71,
            17.85,
            17.62,
            16.76,
            15.65,
            16.14,
            18.37,
            19.23,
            20.08,
            20.04,
            17.46,
            15.37,
            13.6,
            13.82,
            14.61,
            16.07,
            17.03,
            17.04,
            18.12,
            20.34,
            22.01,
            20.72,
            19.95,
            21.13,
            24.04,
            25.65,
            22.24,
            18.59,
            17.6,
            15.52,
            15.35,
            18.85,
            19.25,
            17.77,
            18.93,
            16.59,
            15.59,
            15.55,
            16.97,
            18.84,
            20.76,
            20.18,
            18.6,
            17.33,
            15.39,
            18.8,
            22.17,
            24.01,
            20.68,
            16.92,
            12.83,
            12.17,
            11.94,
            14.28,
            14.11,
            16.51,
            16.51,
            19.43,
            21.6,
            22.22,
            21.24,
            20.52,
            19.91,
            20.59,
            22.24,
            21.81,
            22.99,
            21.24,
            18.87,
            16.08,
            13.92,
            14.63,
            15.62,
            16.14,
            16.93,
            15.87,
            13.96,
            13.85,
            13.65,
            15.55,
            17.6,
            16.61,
            16.07,
            15.97,
            14.93,
            14.56,
            13.86,
            11.56,
            10.69,
            11.88,
            16.01,
            17.08,
            17.2,
            18.56,
            16.99,
            16.51,
            15.03,
            15.6,
            18.24,
            17.05,
            14.86,
            14.44,
            14.3,
            14.93,
            17.3,
            19.9,
            19.28,
            18.36,
            19.47,
            22.7,
            23.89,
            24.14,
            23.81,
            17.77,
            14.72,
            13.63,
            12.73,
            13.52,
            13.6,
            14.62,
            15.51,
            18.56,
            17.09,
            15.94,
            13.43,
            13.69,
            12.79,
            13.33,
            14.05,
            13.81,
            16.41,
            20.29,
            23.13,
            22.56,
            20.21,
            18.06,
            18.1,
            17.37,
            19.03,
            19.45,
            18.9,
            20.02,
            19.53,
            18.27,
            15.8,
            16.63,
            18.48,
            21.32,
            21.79,
            19.34,
            17.85,
            17.4,
            14.57,
            13.55,
            12.74,
            11.74,
            12.28,
            15.38,
            15.1,
            16.93,
            15.61,
            15.71,
            15.72,
            16.65,
            15.9,
            15.32,
            17.43,
            20.51,
            19.47,
            16.97,
            16.11,
            14.81,
            14.56,
            14.78,
            16.51,
            15.82,
            16.67,
            17.27,
            16.56,
            17.26,
            16.29,
            17.25,
            17.89,
            17.48,
            16.1,
            15.3,
            15.59,
            17.18,
            18.86,
            22.82,
            22.87,
            19.33,
            16.35,
            15.37,
            16.02,
            14.57,
            14.93,
            15.61,
            14.8,
            12.03,
            10.39,
            11.62,
            13.47,
            16.82,
            15.36,
            13.99,
            15.43,
            16.5,
            15.82,
            14.93,
            13.7,
            13.78,
            14.04,
            14.55,
            14.58,
            15.47,
            14.73,
            15.01,
            17.19,
            15.84,
            16.67,
            15.7,
            15.43,
            16.01,
            14.25,
            14.6,
            13.84,
            14.14,
            17.04,
            14.97,
            14.54,
            15.5,
            15.49,
            13.38,
            13.69,
            17.65,
            17.51,
            16.14,
            16.83,
            17.32,
            15.91,
            14.21,
            13.68,
            15.1,
            14.1,
            15.84,
            16.68,
            18.02,
            16.94,
            15.04,
            12.38,
            11.59,
            11.81,
            10.99,
            12.81,
            13.72,
            15.42,
            16.43,
            15.9,
            13.58,
            12.86,
            12.7,
            12.01,
            11.58,
            11.35,
            13.22,
            14.26,
            14.23,
            14.5,
            14.11,
            14.27,
            15.33,
            15.88,
            15.28,
            14.39,
            13.66,
            13.77,
            14.18,
            15.38,
            17.79,
            18.71,
            15.72,
            13.37,
            14.44,
            16.15,
            16.89,
            15.18,
            16.38,
            17.05,
            14.43,
            15.08,
            13.32,
            12.83,
            13.49,
            13.04,
            13.33,
            13.6,
            14.24,
            13.87,
            13.52,
            11.49,
            11.87,
            14.46,
            14.62,
            12.24,
            11.41,
            10.68,
            10.27,
            11.67,
            13.78,
            14.72,
            13.14,
            13.12,
            13.77,
            13.09,
            13.89,
            13.4,
            13.61,
            14.53,
            15.48,
            14.44,
            15.2,
            14.87,
            12.9,
            13.6,
            14.22,
            13.67,
            12.17,
            13.08,
            13.3,
            15.71,
            15.23,
            15.34,
            14.11,
            11.64,
            10.73,
            10.87,
            10.0,
            10.04,
            9.685,
            9.903,
            11.11,
            10.74,
            11.0,
            12.6,
            12.53,
            12.44,
            11.64,
            10.49,
            10.07,
            10.59,
            12.47,
            12.72,
            11.79,
            10.75,
            10.41,
            11.86,
            14.0,
            14.37,
            13.9,
            14.35,
            12.75,
            12.12,
            13.61,
            14.41,
            14.77,
            16.51,
            13.94,
            11.19,
            11.54,
            11.1,
            11.82,
            11.77,
            11.26,
            10.3,
            11.12,
            12.68,
            15.33,
            15.23,
            13.09,
            13.15,
            12.83,
            12.49,
            11.24,
            10.11,
            9.272,
            9.731,
            11.09,
            11.97,
            10.09,
            8.792,
            8.658,
            9.668,
            10.55,
            11.88,
            12.48,
            12.38,
            13.54,
            12.74,
            11.37,
            10.8,
            11.32,
            10.19,
            10.37,
            10.87,
            11.28,
            10.51,
            10.6,
            12.7,
            11.74,
            11.24,
            9.113,
            9.198,
            9.435,
            8.952,
            10.25,
            10.84,
            10.66,
            11.39,
            10.66,
            11.14,
            10.39,
            9.198,
            10.68,
            12.09,
            11.27,
            8.856,
            9.14,
            10.86,
            11.04,
            10.54,
            9.762,
            9.802,
            9.986,
            10.9,
            10.34,
            10.16,
            9.373,
            9.456,
            10.93,
            9.803,
            9.192,
            9.03,
            9.347,
            8.127,
            8.751,
            8.382,
            7.967,
            8.512,
            8.325,
            8.82,
            9.084,
            8.919,
            8.418,
            8.188,
            8.501,
            8.578,
            8.106,
            8.223,
            7.384,
            8.181,
            8.023,
            7.074,
            8.132,
            8.219,
            7.195,
            7.324,
            7.43,
            7.146,
            7.707,
            7.015,
            7.36,
            6.609,
            6.845,
            7.343,
            6.886,
            7.033,
            6.85,
            6.414,
            6.527,
            6.377,
            6.446,
            5.965,
            6.546,
            6.402,
            6.07,
            5.809,
            5.867,
            5.904,
            6.349,
            6.384,
            6.188,
            6.095,
            5.741,
            5.949,
            5.805,
            5.442,
            5.732,
            5.639,
            5.574,
            5.14,
            5.391,
            5.286,
            5.644,
            5.959,
            6.121,
            5.483,
            5.532,
            5.441,
            5.608,
            5.379,
            5.711,
            5.63,
            5.359,
            5.062,
            5.588,
            5.634,
            5.198,
            4.836,
            5.203,
            5.199,
            5.194,
            5.578,
            5.535,
            4.991,
            5.393,
            5.165,
            4.908,
            5.296,
            4.973,
            5.046,
            5.237,
            4.949,
            5.209,
            4.998,
            4.701,
            5.054,
            4.738,
            5.144,
            5.14,
            4.723,
            4.612,
            4.479,
            4.805,
            4.662,
            4.807,
            4.764,
            4.55,
            4.398,
            4.602,
            4.635,
            4.445,
            4.323,
            4.241,
            4.184,
            4.276,
            4.304,
            4.141,
            4.261,
            4.361,
            4.264,
            4.181,
            4.076,
            4.105,
            4.118,
            4.125,
            4.099,
            3.992,
            3.992,
            4.125,
            4.141,
            4.019,
            3.911,
            4.084,
            3.899,
            3.829,
            4.04,
            3.706,
            3.675,
            3.612,
            3.602,
            3.585,
            3.68,
            3.604,
            3.621,
            3.577,
            3.879,
            3.924,
            3.912,
            3.898,
            3.634,
            3.617,
            3.534,
            3.478,
            3.38,
            3.434,
            3.368,
            3.467,
            3.503,
            3.339,
            3.393,
            3.372,
            3.356,
            3.383,
            3.357,
            3.312,
            3.237,
            3.277,
            3.316,
            3.228,
            3.196,
            3.24,
            3.086,
            3.126,
            3.134,
            3.043,
            2.958,
            3.207
          ],
          [
            625.3,
            587.6,
            591.2,
            566.5,
            564.0,
            517.3,
            495.6,
            471.4,
            460.9,
            444.1,
            433.0,
            419.3,
            404.3,
            391.2,
            379.6,
            359.4,
            342.2,
            332.4,
            318.3,
            316.7,
            306.7,
            302.3,
            295.0,
            291.5,
            285.9,
            281.1,
            275.3,
            270.7,
            266.3,
            262.1,
            257.2,
            252.8,
            249.1,
            244.1,
            239.4,
            235.2,
            229.8,
            226.5,
            223.7,
            219.9,
            215.3,
            214.2,
            212.2,
            210.2,
            208.2,
            206.7,
            205.1,
            206.0,
            206.6,
            207.9,
            209.2,
            211.8,
            213.9,
            212.7,
            203.6,
            183.3,
            151.2,
            132.6,
            130.0,
            123.4,
            120.0,
            114.9,
            110.3,
            106.9,
            100.7,
            98.78,
            94.22,
            89.39,
            86.59,
            82.95,
            79.47,
            76.63,
            72.1,
            69.58,
            67.1,
            63.81,
            58.17,
            56.0,
            54.27,
            52.76,
            51.03,
            49.69,
            49.0,
            48.23,
            48.11,
            48.28,
            49.04,
            49.74,
            51.25,
            52.76,
            53.76,
            53.63,
            51.5,
            48.09,
            43.81,
            39.8,
            36.13,
            33.05,
            30.6,
            28.71,
            27.16,
            25.92,
            24.99,
            24.03,
            23.19,
            22.5,
            22.1,
            21.46,
            20.98,
            20.28,
            19.27,
            18.06,
            16.83,
            15.74,
            14.7,
            14.13,
            14.62,
            15.24,
            15.13,
            14.57,
            13.79,
            13.32,
            13.31,
            14.16,
            15.27,
            16.38,
            16.13,
            14.83,
            12.53,
            9.991,
            7.925,
            6.689,
            6.138,
            6.211,
            6.366,
            6.898,
            7.767,
            8.728,
            10.23,
            11.92,
            13.75,
            15.85,
            17.92,
            19.41,
            19.74,
            19.15,
            17.52,
            15.05,
            12.05,
            9.273,
            7.745,
            7.87,
            8.753,
            10.45,
            12.89,
            15.63,
            17.21,
            17.45,
            16.65,
            16.13,
            16.45,
            17.08,
            16.4,
            13.56,
            11.06,
            9.84,
            8.933,
            8.044,
            7.18,
            6.542,
            6.109,
            5.81,
            5.815,
            6.106,
            6.665,
            7.672,
            8.926,
            10.75,
            12.1,
            11.07,
            9.878,
            9.468,
            9.349,
            9.833,
            11.55,
            12.16,
            10.65,
            8.485,
            6.506,
            4.903,
            4.444,
            5.989,
            7.854,
            7.885,
            7.184,
            6.174,
            5.402,
            4.771,
            4.465,
            4.053,
            3.838,
            3.514,
            3.341,
            3.094,
            2.841,
            2.636,
            2.375,
            2.166,
            2.011,
            2.004,
            2.058,
            2.222,
            2.513,
            2.789,
            2.977,
            3.187,
            3.25,
            3.184,
            2.934,
            2.919,
            2.992,
            3.134,
            3.303,
            3.296,
            3.418,
            3.48,
            3.648,
            3.782,
            3.706,
            3.591,
            3.744,
            4.404,
            5.692,
            4.734,
            3.004,
            2.643,
            2.866,
            3.035,
            2.907,
            2.604,
            2.35,
            2.273,
            2.262,
            2.411,
            2.728,
            3.035,
            3.212,
            3.198,
            3.02,
            2.904,
            3.196,
            3.301,
            3.633,
            3.999,
            4.462,
            4.403,
            4.012,
            3.635,
            3.43,
            3.569,
            3.757,
            4.147,
            4.586,
            4.982,
            5.219,
            5.332,
            5.314,
            5.012,
            4.723,
            4.417,
            4.107,
            4.035,
            3.982,
            4.225,
            4.572,
            5.328,
            6.332,
            7.53,
            8.796,
            9.523,
            9.633,
            9.379,
            8.648,
            8.196,
            8.162,
            8.347,
            9.066,
            9.651,
            9.668,
            9.7,
            9.382,
            9.464,
            10.07,
            10.77,
            11.0,
            10.71,
            9.223,
            8.083,
            7.282,
            6.671,
            6.321,
            6.403,
            6.082,
            6.186,
            6.116,
            6.101,
            6.551,
            7.424,
            8.838,
            13.82,
            15.38,
            20.12,
            18.59,
            18.1,
            14.64,
            10.63,
            8.045,
            6.316,
            5.351,
            4.722,
            4.232,
            4.218,
            4.198,
            4.23,
            4.151,
            3.973,
            4.116,
            4.824,
            5.469,
            5.99,
            5.946,
            5.443,
            5.286,
            5.175,
            5.056,
            5.113,
            5.065,
            5.025,
            5.394,
            5.862,
            6.255,
            6.291,
            6.528,
            6.99,
            7.479,
            7.574,
            7.227,
            6.435,
            5.908,
            5.31,
            5.11,
            5.212,
            5.354,
            5.255,
            5.031,
            4.717,
            4.5,
            4.385,
            4.088,
            3.763,
            3.821,
            4.284,
            5.237,
            5.969,
            6.194,
            5.878,
            5.549,
            5.584,
            6.373,
            7.366,
            8.607,
            8.825,
            8.522,
            7.825,
            7.037,
            6.267,
            5.969,
            6.206,
            6.669,
            6.899,
            6.271,
            5.39,
            4.528,
            3.873,
            3.406,
            3.216,
            3.42,
            3.647,
            3.918,
            4.393,
            4.91,
            5.208,
            5.59,
            5.63,
            5.006,
            4.343,
            4.599,
            5.219,
            5.502,
            5.386,
            5.567,
            5.88,
            4.981,
            3.955,
            3.897,
            4.05,
            3.461,
            2.751,
            2.425,
            2.343,
            2.243,
            1.951,
            1.525,
            1.21,
            1.157,
            1.141,
            1.283,
            1.489,
            1.839,
            2.403,
            2.87,
            2.832,
            2.514,
            2.49,
            2.586,
            2.412,
            1.908,
            1.605,
            1.599,
            2.009,
            2.939,
            3.989,
            5.718,
            7.644,
            9.05,
            9.613,
            10.42,
            9.957,
            8.956,
            7.357,
            5.864,
            4.686,
            4.227,
            4.222,
            4.16,
            4.016,
            3.891,
            3.787,
            3.868,
            4.462,
            5.105,
            5.674,
            5.968,
            6.272,
            7.013,
            7.682,
            8.438,
            7.96,
            7.613,
            7.322,
            7.18,
            6.794,
            6.775,
            7.101,
            7.16,
            6.85,
            6.462,
            6.076,
            5.796,
            5.823,
            5.496,
            4.652,
            3.853,
            3.589,
            3.644,
            3.509,
            3.105,
            2.682,
            2.283,
            2.166,
            2.343,
            2.577,
            3.014,
            3.251,
            3.104,
            2.757,
            2.343,
            2.336,
            2.614,
            3.004,
            2.952,
            2.462,
            2.026,
            1.907,
            1.943,
            2.104,
            2.164,
            2.118,
            2.013,
            1.78,
            1.615,
            1.523,
            1.95,
            2.702,
            3.447,
            3.994,
            4.13,
            3.988,
            3.742,
            3.535,
            3.415,
            3.383,
            3.842,
            4.584,
            5.413,
            5.763,
            5.521,
            5.51,
            5.585,
            6.102,
            6.219,
            6.214,
            6.412,
            6.858,
            7.417,
            8.068,
            8.702,
            8.052,
            6.406,
            4.667,
            3.384,
            2.999,
            2.997,
            3.413,
            4.414,
            5.575,
            6.339,
            6.445,
            5.741,
            4.568,
            3.268,
            2.411,
            1.953,
            2.037,
            2.745,
            3.519,
            3.836,
            3.684,
            3.486,
            3.476,
            3.5,
            3.931,
            4.563,
            5.194,
            4.489,
            3.403,
            2.333,
            1.971,
            2.022,
            2.261,
            2.951,
            3.415,
            3.253,
            2.769,
            2.239,
            2.315,
            2.879,
            3.151,
            2.718,
            2.173,
            1.911,
            2.095,
            2.272,
            1.957,
            1.62,
            1.226,
            1.047,
            1.016,
            0.9831,
            0.9867,
            0.9607,
            0.8939,
            0.7852,
            0.7414,
            0.8066,
            1.038,
            1.299,
            1.507,
            1.638,
            1.788,
            2.182,
            2.494,
            2.259,
            1.787,
            1.675,
            1.737,
            1.688,
            1.717,
            1.797,
            2.134,
            2.907,
            3.918,
            4.616,
            4.377,
            3.978,
            4.524,
            5.477,
            4.989,
            3.777,
            3.551,
            4.681,
            6.272,
            6.322,
            5.193,
            4.547,
            4.251,
            3.64,
            3.313,
            3.703,
            3.861,
            3.314,
            2.795,
            2.313,
            1.903,
            1.919,
            2.562,
            3.814,
            5.325,
            5.635,
            5.083,
            4.645,
            3.952,
            3.648,
            3.298,
            3.003,
            3.446,
            3.925,
            3.743,
            4.126,
            4.281,
            3.463,
            2.631,
            2.258,
            2.198,
            2.259,
            2.86,
            3.494,
            3.258,
            2.286,
            1.749,
            1.747,
            2.45,
            3.23,
            3.015,
            2.134,
            2.088,
            2.514,
            2.597,
            2.28,
            2.279,
            2.966,
            3.842,
            3.102,
            2.51,
            2.434,
            2.348,
            2.583,
            2.922,
            3.108,
            3.589,
            4.212,
            3.6,
            2.174,
            1.897,
            2.361,
            2.645,
            2.878,
            2.842,
            2.425,
            1.699,
            1.331,
            1.468,
            1.723,
            2.14,
            2.419,
            2.364,
            2.245,
            2.095,
            2.108,
            2.542,
            2.385,
            2.167,
            2.197,
            2.482,
            3.051,
            3.718,
            3.326,
            2.162,
            1.762,
            2.182,
            2.685,
            2.636,
            1.921,
            1.751,
            1.855,
            1.887,
            1.271,
            1.013,
            1.624,
            2.775,
            2.677,
            2.068,
            2.531,
            2.822,
            1.874,
            1.346,
            1.259,
            1.399,
            1.56,
            1.936,
            1.941,
            1.737,
            2.102,
            2.071,
            1.93,
            1.548,
            1.891,
            2.595,
            2.472,
            2.464,
            3.055,
            2.645,
            1.56,
            1.868,
            1.947,
            1.519,
            1.374,
            1.858,
            2.748,
            2.166,
            1.893,
            2.953,
            3.669,
            3.418,
            2.682,
            2.075,
            2.223,
            2.603,
            2.157,
            1.649,
            1.339,
            1.276,
            1.652,
            1.952,
            2.961,
            2.565,
            1.825,
            2.629,
            3.503,
            2.43,
            1.763,
            1.872,
            1.861,
            1.648,
            2.215,
            2.793,
            2.947,
            2.453,
            1.915,
            1.649,
            1.504,
            1.311,
            1.365,
            1.765,
            2.204,
            2.578,
            2.653,
            2.39,
            1.921,
            1.669,
            1.538,
            1.752,
            1.917,
            1.658,
            1.538,
            1.634,
            1.862,
            2.21,
            2.152,
            2.244,
            2.067,
            1.997,
            2.133,
            2.285,
            1.856,
            1.284,
            1.043,
            1.119,
            1.174,
            1.025,
            0.9157,
            0.9155,
            1.492,
            2.352,
            2.35,
            2.219,
            2.099,
            1.918,
            1.826,
            1.942,
            1.94,
            1.669,
            1.291,
            0.9865,
            1.255,
            1.731,
            1.987,
            1.927,
            1.75,
            1.558,
            1.383,
            1.48,
            1.484,
            1.509,
            1.52,
            1.72,
            1.582,
            1.334,
            1.108,
            1.288,
            1.808,
            2.073,
            2.032,
            2.063,
            1.919,
            1.461,
            1.306,
            1.443,
            1.954,
            2.608,
            2.868,
            2.365,
            2.2,
            2.321,
            2.239,
            1.861,
            1.841,
            1.619,
            1.249,
            0.9674,
            0.9741,
            1.008,
            1.036,
            1.271,
            1.615,
            1.999,
            2.258,
            2.303,
            1.963,
            1.419,
            1.113,
            0.9217,
            0.7753,
            0.8073,
            1.115,
            1.751,
            2.272,
            2.178,
            1.457,
            1.181,
            1.368,
            1.354,
            1.501,
            1.519,
            1.628,
            1.85,
            1.765,
            1.78,
            1.699,
            1.523,
            1.574,
            1.902,
            1.956,
            1.684,
            1.68,
            1.225,
            0.9464,
            1.101,
            1.299,
            1.323,
            1.367,
            1.714,
            2.137,
            1.903,
            1.388,
            1.377,
            1.326,
            1.727,
            2.079,
            2.303,
            1.691,
            1.797,
            1.954,
            1.861,
            1.933,
            1.951,
            2.173,
            1.441,
            0.8551,
            0.7864,
            1.0,
            1.332,
            1.633,
            2.111,
            1.791,
            1.888,
            1.912,
            1.155,
            0.9094,
            1.059,
            1.479,
            1.685,
            1.633,
            2.108,
            1.878,
            1.941,
            2.04,
            2.841,
            2.26,
            1.44,
            1.095,
            1.136,
            1.444,
            1.894,
            1.457,
            1.627,
            1.598,
            1.18,
            1.395,
            1.675,
            1.181,
            1.161,
            1.574,
            1.472,
            1.73,
            2.01,
            1.299,
            1.308,
            1.649,
            1.902,
            1.38,
            0.8591,
            1.06,
            1.333,
            1.988,
            1.972,
            1.304,
            1.273,
            1.647,
            1.816,
            1.685,
            0.892,
            0.8334,
            1.034,
            1.088,
            0.9378,
            1.389,
            1.885,
            1.956,
            1.736,
            1.789,
            1.575,
            1.299,
            1.309,
            1.292,
            1.811,
            1.659,
            1.726,
            1.468,
            1.325,
            1.057,
            1.172,
            1.385,
            1.247,
            1.102,
            1.387,
            1.365,
            1.454,
            1.219,
            0.9267,
            0.9898,
            1.031,
            0.8054,
            1.033,
            1.244,
            1.326,
            1.369,
            1.554,
            1.012,
            0.9401,
            1.022,
            1.192,
            1.24,
            1.479,
            2.07,
            2.614,
            2.556,
            2.934,
            2.692,
            2.081,
            1.523,
            1.26,
            1.641,
            1.534,
            1.663,
            1.415,
            0.9891,
            1.181,
            1.131,
            1.179,
            0.9202,
            0.7712,
            1.059,
            1.092,
            0.791,
            0.7107,
            0.5212,
            0.935,
            1.097,
            0.8287,
            0.8791,
            1.111,
            1.036,
            0.809,
            1.039,
            0.7567,
            0.7336,
            0.7393,
            0.9999,
            0.9877,
            0.861,
            0.8391,
            0.8589,
            0.8983,
            0.9606,
            1.022,
            1.149,
            1.301,
            1.357,
            1.378,
            1.27,
            1.15,
            0.9812,
            1.076,
            1.025,
            1.095,
            1.211,
            1.324,
            1.459,
            1.705,
            1.782,
            1.608,
            1.524,
            1.263,
            1.142,
            1.204,
            1.215,
            1.164,
            1.093,
            0.9997,
            0.9448,
            0.9961,
            1.054,
            1.095,
            1.201,
            1.359,
            1.458,
            1.446,
            1.298,
            1.215,
            0.9844,
            0.9405,
            0.7955,
            0.9936,
            0.955,
            0.9644,
            0.9541,
            1.046,
            1.09,
            0.9924,
            0.8769,
            0.8203,
            0.8082,
            0.8705,
            0.9425,
            0.9988,
            1.017,
            0.9874,
            0.9294,
            0.8967,
            0.8875,
            0.9159,
            1.01,
            1.174,
            1.201,
            1.273,
            1.33,
            1.244,
            1.32,
            1.28,
            1.261,
            1.158,
            1.131,
            1.111,
            1.178,
            1.203,
            1.089,
            1.036,
            0.9657,
            1.027,
            1.029,
            1.068,
            1.094,
            1.145,
            1.115,
            1.107,
            1.072,
            1.036,
            1.148,
            1.182,
            1.262,
            1.093,
            1.032,
            0.961,
            0.8479,
            0.9136,
            0.9882,
            0.9247,
            0.9346,
            0.8811,
            0.9397,
            1.018,
            0.9825,
            0.9959,
            0.9012,
            0.8167,
            0.8811,
            0.8494,
            0.8394,
            0.9089,
            0.9003,
            0.9124,
            0.8989,
            0.8618,
            0.8198,
            0.8424,
            0.9308,
            0.9644,
            1.001,
            1.006,
            0.8958,
            0.8039,
            0.7332,
            0.7444,
            0.778,
            0.8317,
            0.872,
            0.8747,
            0.9097,
            0.9976,
            1.073,
            1.013,
            0.98,
            1.039,
            1.142,
            1.209,
            1.068,
            0.9351,
            0.9123,
            0.8283,
            0.817,
            0.9677,
            0.9703,
            0.9029,
            0.9552,
            0.8532,
            0.8111,
            0.8021,
            0.8586,
            0.9313,
            1.013,
            0.9859,
            0.9218,
            0.884,
            0.7957,
            0.9356,
            1.061,
            1.14,
            1.009,
            0.8603,
            0.6976,
            0.6657,
            0.6563,
            0.7531,
            0.7422,
            0.8431,
            0.8337,
            0.9405,
            1.037,
            1.066,
            1.025,
            0.9958,
            0.9746,
            0.9966,
            1.057,
            1.038,
            1.092,
            1.034,
            0.9353,
            0.8378,
            0.7524,
            0.7693,
            0.8099,
            0.8447,
            0.8867,
            0.8283,
            0.7327,
            0.7328,
            0.7183,
            0.7874,
            0.8717,
            0.8265,
            0.8088,
            0.8025,
            0.7624,
            0.7496,
            0.7201,
            0.6315,
            0.6052,
            0.6697,
            0.8733,
            0.9081,
            0.8863,
            0.9212,
            0.8536,
            0.8324,
            0.765,
            0.7877,
            0.8913,
            0.848,
            0.7603,
            0.7439,
            0.7334,
            0.7602,
            0.8523,
            0.9522,
            0.9271,
            0.8861,
            0.9319,
            1.065,
            1.115,
            1.117,
            1.114,
            0.8777,
            0.7577,
            0.7128,
            0.6735,
            0.7092,
            0.7069,
            0.7455,
            0.7842,
            0.9013,
            0.8331,
            0.7933,
            0.6923,
            0.7179,
            0.6936,
            0.7328,
            0.7431,
            0.7205,
            0.8062,
            0.961,
            1.079,
            1.074,
            1.02,
            0.9227,
            0.9184,
            0.8561,
            0.9202,
            0.9328,
            0.9113,
            0.9565,
            0.9341,
            0.8901,
            0.7908,
            0.818,
            0.8895,
            0.9984,
            1.024,
            0.9269,
            0.8685,
            0.8514,
            0.7354,
            0.7042,
            0.6737,
            0.6331,
            0.6553,
            0.794,
            0.774,
            0.8378,
            0.7816,
            0.7788,
            0.7747,
            0.8145,
            0.7784,
            0.758,
            0.8486,
            0.9656,
            0.9187,
            0.8234,
            0.793,
            0.7372,
            0.7239,
            0.7391,
            0.8091,
            0.7712,
            0.8104,
            0.8325,
            0.8087,
            0.8391,
            0.8096,
            0.8434,
            0.8608,
            0.8422,
            0.7855,
            0.7494,
            0.7667,
            0.8294,
            0.8813,
            1.036,
            1.05,
            0.9082,
            0.7934,
            0.7573,
            0.7843,
            0.7282,
            0.7356,
            0.7595,
            0.7315,
            0.6198,
            0.5598,
            0.6141,
            0.7008,
            0.8367,
            0.7574,
            0.6968,
            0.7498,
            0.7956,
            0.7628,
            0.7262,
            0.6841,
            0.6902,
            0.6987,
            0.7131,
            0.7124,
            0.7479,
            0.7188,
            0.7305,
            0.8181,
            0.7554,
            0.7991,
            0.7584,
            0.7506,
            0.7734,
            0.7002,
            0.7156,
            0.6849,
            0.6921,
            0.8068,
            0.7157,
            0.7077,
            0.7473,
            0.7506,
            0.6652,
            0.6741,
            0.8291,
            0.8193,
            0.7696,
            0.7997,
            0.8182,
            0.7624,
            0.6976,
            0.6748,
            0.737,
            0.6849,
            0.7552,
            0.7869,
            0.8452,
            0.8068,
            0.7344,
            0.6325,
            0.5989,
            0.6065,
            0.5782,
            0.6476,
            0.6816,
            0.7524,
            0.7942,
            0.7793,
            0.6955,
            0.6825,
            0.7037,
            0.7246,
            0.7483,
            0.7399,
            0.7623,
            0.7524,
            0.7264,
            0.7399,
            0.7249,
            0.7162,
            0.7383,
            0.7503,
            0.7245,
            0.6986,
            0.6691,
            0.6727,
            0.7372,
            0.8458,
            0.8315,
            0.8584,
            0.7413,
            0.6463,
            0.6901,
            0.7563,
            0.7893,
            0.7106,
            0.7701,
            0.7985,
            0.6905,
            0.7143,
            0.6439,
            0.6216,
            0.6513,
            0.6348,
            0.6452,
            0.654,
            0.6768,
            0.6603,
            0.6507,
            0.5727,
            0.5829,
            0.6833,
            0.6899,
            0.5983,
            0.5646,
            0.5398,
            0.522,
            0.574,
            0.65,
            0.6906,
            0.6256,
            0.6324,
            0.6499,
            0.6262,
            0.6582,
            0.6392,
            0.6474,
            0.6799,
            0.721,
            0.6826,
            0.7079,
            0.6992,
            0.6319,
            0.6594,
            0.6788,
            0.6527,
            0.5897,
            0.6295,
            0.6294,
            0.7243,
            0.7056,
            0.7105,
            0.6632,
            0.569,
            0.5348,
            0.5366,
            0.5031,
            0.5143,
            0.5215,
            0.5494,
            0.57,
            0.5346,
            0.5331,
            0.5977,
            0.5971,
            0.5956,
            0.5645,
            0.5207,
            0.5002,
            0.5201,
            0.5953,
            0.6011,
            0.5654,
            0.5255,
            0.5113,
            0.5663,
            0.6514,
            0.6613,
            0.6452,
            0.664,
            0.6052,
            0.5808,
            0.6345,
            0.6666,
            0.6801,
            0.7444,
            0.6463,
            0.5444,
            0.5581,
            0.5387,
            0.5679,
            0.563,
            0.5414,
            0.5206,
            0.5441,
            0.5925,
            0.6981,
            0.6929,
            0.6081,
            0.6166,
            0.606,
            0.5981,
            0.5647,
            0.5214,
            0.4773,
            0.4843,
            0.5316,
            0.5659,
            0.4927,
            0.4427,
            0.4379,
            0.4786,
            0.5049,
            0.5551,
            0.5821,
            0.5779,
            0.6247,
            0.5948,
            0.5409,
            0.5205,
            0.5409,
            0.4954,
            0.5029,
            0.5218,
            0.5371,
            0.5047,
            0.5114,
            0.5882,
            0.5524,
            0.5367,
            0.4501,
            0.4534,
            0.4632,
            0.4448,
            0.504,
            0.5212,
            0.5158,
            0.5369,
            0.5083,
            0.5302,
            0.4999,
            0.4545,
            0.5111,
            0.5655,
            0.5355,
            0.4432,
            0.4086,
            0.4353,
            0.4434,
            0.4293,
            0.4056,
            0.4091,
            0.4217,
            0.4625,
            0.4533,
            0.4555,
            0.4313,
            0.4244,
            0.4745,
            0.43,
            0.3944,
            0.3822,
            0.3838,
            0.3377,
            0.3531,
            0.3374,
            0.3203,
            0.3366,
            0.3294,
            0.3457,
            0.3558,
            0.35,
            0.3322,
            0.3237,
            0.3324,
            0.3367,
            0.3195,
            0.3234,
            0.2944,
            0.3218,
            0.318,
            0.2865,
            0.3263,
            0.3351,
            0.2997,
            0.2993,
            0.3024,
            0.2911,
            0.311,
            0.286,
            0.2961,
            0.2676,
            0.2736,
            0.2902,
            0.2739,
            0.2778,
            0.2722,
            0.2568,
            0.2656,
            0.2652,
            0.3031,
            0.2413,
            0.2647,
            0.2574,
            0.2419,
            0.2317,
            0.2383,
            0.2843,
            0.3026,
            0.3068,
            0.3011,
            0.301,
            0.2854,
            0.2943,
            0.2875,
            0.2588,
            0.2722,
            0.271,
            0.2726,
            0.2573,
            0.2657,
            0.263,
            0.2745,
            0.2844,
            0.289,
            0.2624,
            0.2616,
            0.2527,
            0.255,
            0.2436,
            0.256,
            0.2525,
            0.2413,
            0.2261,
            0.2416,
            0.2417,
            0.2235,
            0.2085,
            0.2205,
            0.2196,
            0.2186,
            0.2318,
            0.2309,
            0.2102,
            0.2245,
            0.2154,
            0.2053,
            0.2192,
            0.2081,
            0.21,
            0.2172,
            0.2068,
            0.2161,
            0.2086,
            0.1972,
            0.2103,
            0.1996,
            0.2153,
            0.2166,
            0.1996,
            0.195,
            0.19,
            0.2022,
            0.1892,
            0.1927,
            0.1903,
            0.1815,
            0.1755,
            0.1825,
            0.1855,
            0.1824,
            0.1834,
            0.1843,
            0.1796,
            0.1802,
            0.1791,
            0.1722,
            0.1733,
            0.1772,
            0.1746,
            0.171,
            0.1675,
            0.1695,
            0.171,
            0.174,
            0.173,
            0.1686,
            0.1688,
            0.1724,
            0.1723,
            0.1671,
            0.1626,
            0.1693,
            0.1608,
            0.1577,
            0.1672,
            0.1566,
            0.1682,
            0.2259,
            0.2817,
            0.2286,
            0.1918,
            0.1726,
            0.1659,
            0.1621,
            0.1799,
            0.2001,
            0.2223,
            0.2093,
            0.1749,
            0.1634,
            0.1538,
            0.1491,
            0.1464,
            0.1459,
            0.1411,
            0.1478,
            0.1548,
            0.1555,
            0.1696,
            0.1641,
            0.159,
            0.1584,
            0.1567,
            0.154,
            0.1517,
            0.1534,
            0.1533,
            0.1491,
            0.1557,
            0.1534,
            0.1445,
            0.1654,
            0.162,
            0.1502,
            0.1426,
            0.1547
          ],
          [
            288.9,
            265.3,
            265.5,
            247.9,
            242.7,
            151.3,
            134.9,
            120.5,
            112.2,
            109.1,
            99.72,
            89.15,
            79.28,
            73.3,
            66.5,
            57.44,
            49.74,
            44.29,
            38.8,
            61.29,
            57.77,
            41.38,
            27.53,
            26.52,
            25.38,
            24.06,
            23.19,
            22.12,
            20.91,
            19.85,
            18.83,
            17.9,
            17.18,
            16.28,
            15.43,
            14.74,
            14.05,
            13.49,
            13.03,
            12.53,
            12.04,
            11.82,
            11.52,
            11.31,
            11.13,
            11.1,
            11.1,
            11.32,
            11.59,
            12.0,
            12.51,
            13.15,
            13.88,
            14.3,
            14.16,
            13.13,
            11.17,
            25.84,
            27.36,
            26.03,
            25.4,
            24.38,
            23.56,
            23.03,
            21.71,
            21.47,
            20.59,
            19.65,
            19.09,
            18.34,
            17.72,
            17.25,
            16.28,
            15.84,
            15.36,
            13.27,
            5.737,
            5.331,
            4.989,
            4.7,
            4.417,
            4.18,
            4.02,
            3.854,
            3.75,
            3.665,
            3.629,
            3.585,
            3.593,
            3.598,
            3.586,
            3.515,
            3.348,
            3.127,
            2.868,
            2.636,
            2.422,
            2.239,
            2.093,
            1.978,
            1.881,
            1.798,
            1.736,
            1.668,
            1.61,
            1.56,
            1.529,
            1.479,
            1.44,
            1.391,
            1.328,
            1.257,
            1.186,
            1.122,
            1.059,
            1.021,
            1.032,
            1.459,
            1.469,
            1.42,
            1.359,
            1.321,
            1.313,
            1.366,
            1.426,
            1.491,
            1.458,
            1.362,
            1.202,
            1.027,
            0.8792,
            0.7867,
            0.7434,
            0.9621,
            0.9715,
            1.02,
            1.1,
            1.177,
            1.305,
            1.437,
            1.577,
            1.731,
            1.886,
            1.983,
            1.994,
            1.933,
            1.792,
            1.594,
            1.355,
            1.12,
            0.9966,
            1.382,
            1.489,
            1.688,
            1.954,
            2.239,
            2.377,
            2.385,
            2.272,
            2.211,
            2.25,
            2.307,
            2.23,
            1.91,
            1.635,
            1.515,
            1.421,
            1.321,
            1.222,
            1.145,
            1.097,
            1.063,
            1.066,
            1.098,
            1.17,
            1.291,
            1.431,
            1.622,
            1.741,
            1.601,
            1.464,
            1.42,
            1.407,
            1.46,
            1.652,
            1.694,
            1.517,
            1.272,
            1.051,
            0.8675,
            0.8275,
            1.033,
            1.488,
            1.71,
            1.588,
            1.416,
            1.29,
            1.181,
            1.133,
            1.06,
            1.032,
            0.9709,
            0.9419,
            0.8967,
            0.8506,
            0.8051,
            0.7533,
            0.7124,
            0.679,
            0.6828,
            0.696,
            0.7337,
            0.7972,
            0.85,
            0.8792,
            0.9145,
            0.9166,
            0.8992,
            0.8462,
            0.8448,
            0.8599,
            0.8865,
            0.9175,
            0.9088,
            0.9314,
            0.9384,
            0.9643,
            0.9838,
            0.9645,
            0.9405,
            0.9694,
            1.062,
            1.212,
            1.094,
            0.8676,
            0.7989,
            0.8222,
            0.8429,
            0.8124,
            0.7528,
            0.7009,
            0.6845,
            0.6813,
            0.7138,
            0.7721,
            0.826,
            0.8543,
            0.844,
            0.8076,
            0.7844,
            1.323,
            1.345,
            1.441,
            1.537,
            1.665,
            1.644,
            1.522,
            1.412,
            1.351,
            1.399,
            1.451,
            1.562,
            1.667,
            1.769,
            1.825,
            1.836,
            1.821,
            1.747,
            1.671,
            1.583,
            1.5,
            1.486,
            1.473,
            1.542,
            1.644,
            1.832,
            2.076,
            2.349,
            2.645,
            2.779,
            2.782,
            2.723,
            2.535,
            2.433,
            2.421,
            2.449,
            2.624,
            2.745,
            2.739,
            2.736,
            2.648,
            2.664,
            2.795,
            2.951,
            2.981,
            2.913,
            2.553,
            2.294,
            2.121,
            1.969,
            1.905,
            1.914,
            1.83,
            1.882,
            1.863,
            1.894,
            2.117,
            2.583,
            3.522,
            5.922,
            7.522,
            9.066,
            7.479,
            5.899,
            4.147,
            2.918,
            2.27,
            1.879,
            1.667,
            1.547,
            1.437,
            1.453,
            1.445,
            1.467,
            1.449,
            1.402,
            1.436,
            1.622,
            1.777,
            1.902,
            1.872,
            1.743,
            1.697,
            1.669,
            1.638,
            1.668,
            1.646,
            1.619,
            1.723,
            1.822,
            1.915,
            1.914,
            1.964,
            2.071,
            2.167,
            2.175,
            2.095,
            1.898,
            1.786,
            1.641,
            1.598,
            1.626,
            1.662,
            1.645,
            1.59,
            1.506,
            1.459,
            1.424,
            1.36,
            1.28,
            1.308,
            1.436,
            1.686,
            1.864,
            1.876,
            1.781,
            1.695,
            1.7,
            1.901,
            2.105,
            2.384,
            2.406,
            2.326,
            2.159,
            1.969,
            1.799,
            1.746,
            1.797,
            1.914,
            1.957,
            1.804,
            1.601,
            1.395,
            1.241,
            1.128,
            1.096,
            1.165,
            1.23,
            1.297,
            1.41,
            1.535,
            1.598,
            1.681,
            1.666,
            1.52,
            1.348,
            1.429,
            1.574,
            1.638,
            1.599,
            1.632,
            1.703,
            1.492,
            1.243,
            1.233,
            1.283,
            1.138,
            0.9537,
            0.8731,
            0.8613,
            0.8432,
            0.7622,
            0.6411,
            0.5386,
            0.5313,
            0.536,
            0.5938,
            0.667,
            0.7701,
            0.9195,
            1.032,
            1.019,
            0.9213,
            0.9176,
            0.9407,
            0.8927,
            0.7509,
            0.6563,
            0.6622,
            0.8685,
            1.409,
            1.755,
            2.32,
            2.899,
            3.29,
            3.414,
            3.693,
            3.526,
            3.238,
            2.801,
            2.4,
            2.074,
            2.003,
            2.024,
            1.949,
            1.807,
            1.715,
            1.641,
            1.648,
            1.838,
            2.035,
            2.213,
            2.302,
            2.358,
            2.595,
            2.786,
            3.008,
            2.838,
            2.744,
            2.639,
            2.59,
            2.469,
            2.447,
            2.56,
            2.569,
            2.472,
            2.354,
            2.259,
            2.142,
            2.143,
            2.061,
            1.783,
            1.532,
            1.454,
            1.489,
            1.453,
            1.326,
            1.18,
            1.045,
            1.013,
            1.092,
            1.183,
            1.347,
            1.438,
            1.377,
            1.258,
            1.105,
            1.112,
            1.207,
            1.351,
            1.336,
            1.16,
            0.9903,
            0.9446,
            0.9603,
            1.03,
            1.054,
            1.036,
            1.003,
            0.9098,
            0.8451,
            0.8105,
            0.9898,
            1.259,
            1.501,
            1.675,
            1.706,
            1.644,
            1.561,
            1.488,
            1.442,
            1.43,
            1.582,
            1.805,
            2.055,
            2.167,
            2.077,
            2.076,
            2.065,
            2.219,
            2.24,
            2.239,
            2.291,
            2.42,
            2.579,
            2.746,
            2.954,
            2.742,
            2.245,
            1.709,
            1.27,
            1.152,
            1.181,
            1.357,
            1.704,
            2.079,
            2.285,
            2.304,
            2.082,
            1.709,
            1.278,
            0.9822,
            0.8255,
            0.8967,
            1.181,
            1.456,
            1.547,
            1.492,
            1.418,
            1.412,
            1.41,
            1.56,
            1.751,
            1.948,
            1.712,
            1.382,
            1.005,
            0.8722,
            0.9081,
            1.008,
            1.262,
            1.415,
            1.351,
            1.196,
            0.9945,
            1.027,
            1.229,
            1.317,
            1.177,
            0.9863,
            0.8954,
            0.9597,
            1.035,
            0.9251,
            0.7969,
            0.6326,
            0.5621,
            0.5584,
            0.5525,
            0.5639,
            0.5589,
            0.5287,
            0.4781,
            0.4595,
            0.4972,
            0.605,
            0.7133,
            0.7953,
            0.8424,
            0.8889,
            1.026,
            1.125,
            1.035,
            0.8547,
            0.8196,
            0.844,
            0.8256,
            0.8399,
            0.8681,
            0.9808,
            1.237,
            1.543,
            1.743,
            1.646,
            1.515,
            1.679,
            1.939,
            1.793,
            1.417,
            1.344,
            1.693,
            2.155,
            2.162,
            1.826,
            1.625,
            1.528,
            1.343,
            1.255,
            1.386,
            1.434,
            1.273,
            1.116,
            0.9565,
            0.8143,
            0.838,
            1.077,
            1.459,
            1.904,
            1.983,
            1.796,
            1.649,
            1.433,
            1.35,
            1.251,
            1.161,
            1.308,
            1.458,
            1.389,
            1.51,
            1.551,
            1.3,
            1.03,
            0.9118,
            0.9068,
            0.9417,
            1.143,
            1.341,
            1.257,
            0.9455,
            0.7569,
            0.7619,
            1.021,
            1.264,
            1.197,
            0.9086,
            0.8881,
            1.029,
            1.053,
            0.9563,
            0.9575,
            1.168,
            1.429,
            1.205,
            1.006,
            0.9879,
            0.9795,
            1.081,
            1.174,
            1.208,
            1.351,
            1.51,
            1.324,
            0.8792,
            0.7894,
            0.9768,
            1.202,
            1.373,
            1.237,
            1.002,
            0.736,
            0.5977,
            0.6682,
            0.7706,
            0.9092,
            0.9929,
            0.9682,
            0.9238,
            0.8753,
            0.8778,
            1.018,
            0.9671,
            0.8988,
            0.9046,
            0.9914,
            1.157,
            1.346,
            1.225,
            0.8624,
            0.7329,
            0.8781,
            1.035,
            1.02,
            0.7975,
            0.7402,
            0.7777,
            0.796,
            0.5839,
            0.4936,
            0.7284,
            1.079,
            1.038,
            0.8463,
            0.9905,
            1.074,
            0.7754,
            0.5937,
            0.5695,
            0.6346,
            0.6917,
            0.8225,
            0.8146,
            0.7459,
            0.9068,
            1.015,
            0.9142,
            0.6979,
            0.8115,
            1.024,
            0.9708,
            0.9601,
            1.143,
            1.07,
            0.8378,
            1.32,
            1.157,
            0.7305,
            0.6313,
            0.784,
            1.023,
            0.8621,
            0.7711,
            1.099,
            1.285,
            1.204,
            0.9823,
            0.7913,
            0.8453,
            0.9652,
            0.8293,
            0.672,
            0.5658,
            0.5833,
            0.7353,
            0.7988,
            1.088,
            0.9574,
            0.7223,
            0.9721,
            1.225,
            0.8991,
            0.6942,
            0.7241,
            0.7323,
            0.8843,
            1.14,
            1.362,
            1.413,
            1.23,
            1.014,
            0.9137,
            0.8452,
            0.7377,
            0.769,
            0.9488,
            1.138,
            1.283,
            1.299,
            1.194,
            1.006,
            0.8952,
            0.8251,
            0.9227,
            1.004,
            0.8916,
            0.8412,
            0.8821,
            0.9825,
            1.135,
            1.093,
            1.136,
            1.059,
            1.024,
            1.081,
            1.141,
            0.967,
            0.7131,
            0.6011,
            0.6448,
            0.6777,
            0.6146,
            0.5806,
            0.6366,
            1.125,
            1.704,
            1.465,
            1.22,
            1.098,
            0.9994,
            0.9603,
            1.005,
            1.003,
            0.8864,
            0.7256,
            0.5725,
            0.7102,
            0.9235,
            1.033,
            0.9952,
            0.9337,
            0.8499,
            0.7591,
            0.8115,
            0.8045,
            0.824,
            0.8244,
            0.9197,
            0.8579,
            0.7471,
            0.6394,
            0.7248,
            0.9552,
            1.051,
            1.031,
            1.039,
            0.9818,
            0.7856,
            0.7163,
            0.7761,
            1.003,
            1.255,
            1.355,
            1.135,
            1.082,
            1.128,
            1.1,
            0.9475,
            0.9405,
            0.8318,
            0.6742,
            0.5468,
            0.556,
            0.5814,
            0.6002,
            0.71,
            0.8646,
            1.027,
            1.115,
            1.129,
            0.9857,
            0.7524,
            0.6164,
            0.5269,
            0.4565,
            0.439,
            0.5802,
            0.8201,
            0.9874,
            0.9496,
            0.6783,
            0.5705,
            0.6477,
            0.6457,
            0.704,
            0.7196,
            0.7534,
            0.8204,
            0.7917,
            0.7953,
            0.7673,
            0.7088,
            0.7211,
            0.8367,
            0.8529,
            0.7468,
            0.7642,
            0.6354,
            0.5168,
            0.5528,
            0.6282,
            0.6411,
            0.6494,
            0.7734,
            0.9127,
            0.8315,
            0.6371,
            0.6353,
            0.617,
            0.7668,
            0.8913,
            0.965,
            0.74,
            0.7741,
            0.8299,
            0.7953,
            0.8198,
            0.8268,
            0.9054,
            0.6424,
            0.4062,
            0.3909,
            0.496,
            0.6233,
            0.726,
            0.8849,
            0.7711,
            0.8132,
            0.8538,
            0.5707,
            0.452,
            0.5109,
            0.67,
            0.7366,
            0.7118,
            0.8683,
            0.7891,
            0.8037,
            0.8363,
            1.097,
            0.8932,
            0.617,
            0.4883,
            0.515,
            0.6383,
            0.793,
            0.6457,
            0.7035,
            0.7082,
            0.5469,
            0.6179,
            0.7183,
            0.542,
            0.5345,
            0.6786,
            0.6494,
            0.7663,
            0.8805,
            0.5885,
            0.5779,
            0.7044,
            0.8015,
            0.6399,
            0.4169,
            0.4901,
            0.5976,
            0.8209,
            0.803,
            0.566,
            0.5516,
            0.6871,
            0.7473,
            0.6994,
            0.4089,
            0.3921,
            0.4715,
            0.5015,
            0.4472,
            0.609,
            0.7684,
            0.7968,
            0.7204,
            0.7139,
            0.6427,
            0.5479,
            0.5656,
            0.5574,
            0.7252,
            0.6736,
            0.6981,
            0.5991,
            0.5505,
            0.4589,
            0.5024,
            0.5786,
            0.5323,
            0.4802,
            0.5746,
            0.5648,
            0.595,
            0.5087,
            0.3988,
            0.4252,
            0.443,
            0.3594,
            0.4438,
            0.5153,
            0.5387,
            0.5353,
            0.5738,
            0.3592,
            0.324,
            0.3567,
            0.4104,
            0.3826,
            0.4213,
            0.5501,
            0.618,
            0.5172,
            0.5973,
            0.5366,
            0.4289,
            0.3258,
            0.349,
            0.5329,
            0.5156,
            0.5721,
            0.4953,
            0.3607,
            0.4537,
            0.4494,
            0.4707,
            0.3791,
            0.3294,
            0.4486,
            0.4557,
            0.3505,
            0.3285,
            0.2756,
            0.6215,
            0.5961,
            0.3914,
            0.3981,
            0.4758,
            0.447,
            0.3633,
            0.4588,
            0.3494,
            0.3402,
            0.3439,
            0.7283,
            0.7168,
            0.6356,
            0.6203,
            0.6291,
            0.6606,
            0.7019,
            0.7354,
            0.8102,
            0.8987,
            0.9262,
            0.9413,
            0.8767,
            0.7966,
            0.6949,
            0.7722,
            0.726,
            0.7833,
            0.8551,
            0.9399,
            1.007,
            1.134,
            1.165,
            1.049,
            1.013,
            0.8652,
            0.7829,
            0.8207,
            0.8332,
            0.801,
            0.7569,
            0.7028,
            0.6668,
            0.7006,
            0.7437,
            0.7605,
            0.8262,
            0.9163,
            0.9763,
            0.9708,
            0.872,
            0.8324,
            0.6931,
            0.6714,
            0.5685,
            0.7043,
            0.6809,
            0.6873,
            0.6762,
            0.7336,
            0.7689,
            0.7053,
            0.631,
            0.5987,
            0.5944,
            0.6325,
            0.6759,
            0.7082,
            0.7215,
            0.7028,
            0.6605,
            0.6441,
            0.6422,
            0.6567,
            0.7175,
            0.8105,
            0.819,
            0.8664,
            0.9071,
            0.854,
            0.8894,
            0.8628,
            0.8542,
            0.7993,
            0.7774,
            0.765,
            0.8069,
            0.8247,
            0.749,
            0.722,
            0.674,
            0.7212,
            0.7229,
            0.739,
            0.7448,
            0.7832,
            0.767,
            0.7684,
            0.7477,
            0.7181,
            0.785,
            0.8029,
            0.8505,
            0.7482,
            0.7232,
            0.6761,
            0.6054,
            0.6499,
            0.7,
            0.653,
            0.658,
            0.6251,
            0.6682,
            0.7122,
            0.6848,
            0.6941,
            0.638,
            0.5875,
            0.6302,
            0.6087,
            0.5991,
            0.6492,
            0.6391,
            0.6524,
            0.6416,
            0.6174,
            0.5937,
            0.6107,
            0.6651,
            0.6849,
            0.7089,
            0.7159,
            0.6426,
            0.5798,
            0.5359,
            0.5447,
            0.5676,
            0.5993,
            0.6265,
            0.6305,
            0.6462,
            0.6993,
            0.7518,
            0.7069,
            0.6833,
            0.7271,
            0.776,
            0.8164,
            0.7259,
            0.6551,
            0.6542,
            0.6013,
            0.5854,
            0.6698,
            0.6755,
            0.6342,
            0.6677,
            0.6052,
            0.5826,
            0.5728,
            0.6076,
            0.65,
            0.7039,
            0.6829,
            0.6428,
            0.6302,
            0.5678,
            0.6568,
            0.7239,
            0.774,
            0.6923,
            0.6054,
            0.5076,
            0.486,
            0.4818,
            0.5464,
            0.5373,
            0.6044,
            0.5923,
            0.6509,
            0.717,
            0.7364,
            0.7088,
            0.6881,
            0.676,
            0.6836,
            0.7134,
            0.6995,
            0.737,
            0.711,
            0.6456,
            0.5885,
            0.5405,
            0.5489,
            0.5723,
            0.5931,
            0.6247,
            0.5924,
            0.5262,
            0.5329,
            0.5205,
            0.5587,
            0.6121,
            0.5798,
            0.5722,
            0.5668,
            0.5437,
            0.5379,
            0.5187,
            0.4664,
            0.4569,
            0.5112,
            0.6673,
            0.6839,
            0.6509,
            0.6567,
            0.6106,
            0.5958,
            0.5473,
            0.56,
            0.6206,
            0.5969,
            0.543,
            0.5338,
            0.5242,
            0.5431,
            0.5977,
            0.654,
            0.6376,
            0.6086,
            0.6371,
            0.7195,
            0.7492,
            0.7401,
            0.7441,
            0.604,
            0.5323,
            0.5053,
            0.4796,
            0.5073,
            0.5036,
            0.5263,
            0.5531,
            0.6253,
            0.5768,
            0.5577,
            0.4945,
            0.5218,
            0.5119,
            0.55,
            0.5468,
            0.5238,
            0.5629,
            0.6565,
            0.73,
            0.7398,
            0.7381,
            0.6685,
            0.6601,
            0.5944,
            0.6298,
            0.633,
            0.6206,
            0.6493,
            0.6335,
            0.6126,
            0.5517,
            0.5639,
            0.6051,
            0.6659,
            0.6864,
            0.6284,
            0.594,
            0.5847,
            0.5115,
            0.5005,
            0.4846,
            0.4609,
            0.4754,
            0.5708,
            0.5585,
            0.5918,
            0.5548,
            0.5478,
            0.5413,
            0.5672,
            0.5392,
            0.5287,
            0.5887,
            0.6534,
            0.6198,
            0.5655,
            0.5502,
            0.5132,
            0.5031,
            0.5181,
            0.5616,
            0.5306,
            0.5597,
            0.5717,
            0.5606,
            0.5809,
            0.5699,
            0.5847,
            0.5888,
            0.5757,
            0.5397,
            0.5145,
            0.5305,
            0.5681,
            0.5859,
            0.6738,
            0.6922,
            0.6055,
            0.539,
            0.5193,
            0.5371,
            0.5045,
            0.5042,
            0.5181,
            0.5067,
            0.4391,
            0.4077,
            0.4466,
            0.5071,
            0.5952,
            0.5315,
            0.4902,
            0.519,
            0.5483,
            0.5226,
            0.4987,
            0.479,
            0.4844,
            0.4903,
            0.4946,
            0.4927,
            0.5147,
            0.4977,
            0.5054,
            0.5581,
            0.5118,
            0.5463,
            0.519,
            0.5165,
            0.5297,
            0.4825,
            0.4932,
            0.473,
            0.4755,
            0.5447,
            0.4823,
            0.4854,
            0.5104,
            0.5148,
            0.4622,
            0.4643,
            0.5551,
            0.5447,
            0.5182,
            0.538,
            0.5476,
            0.5138,
            0.4763,
            0.4614,
            0.5044,
            0.462,
            0.5048,
            0.5223,
            0.5608,
            0.5404,
            0.4982,
            0.4383,
            0.4148,
            0.4203,
            0.4067,
            0.4465,
            0.4632,
            0.5042,
            0.5246,
            0.511,
            0.453,
            0.4343,
            0.4288,
            0.4201,
            0.412,
            0.4158,
            0.4608,
            0.481,
            0.4845,
            0.5143,
            0.515,
            0.5025,
            0.5014,
            0.5013,
            0.4851,
            0.4782,
            0.4601,
            0.4515,
            0.4637,
            0.4849,
            0.5382,
            0.5636,
            0.4961,
            0.4376,
            0.4651,
            0.503,
            0.5255,
            0.4685,
            0.5102,
            0.5321,
            0.4654,
            0.4762,
            0.4354,
            0.421,
            0.4433,
            0.4355,
            0.4418,
            0.4461,
            0.458,
            0.4464,
            0.4438,
            0.3996,
            0.4025,
            0.4611,
            0.4651,
            0.4131,
            0.3931,
            0.3822,
            0.3703,
            0.4002,
            0.4396,
            0.4664,
            0.4253,
            0.435,
            0.437,
            0.4243,
            0.4438,
            0.4336,
            0.4384,
            0.4539,
            0.4811,
            0.46,
            0.4702,
            0.4684,
            0.437,
            0.4537,
            0.4597,
            0.4401,
            0.4013,
            0.4298,
            0.4222,
            0.4774,
            0.466,
            0.4691,
            0.4415,
            0.3883,
            0.37,
            0.3694,
            0.3515,
            0.368,
            0.3903,
            0.4221,
            0.416,
            0.3781,
            0.3675,
            0.407,
            0.4077,
            0.4078,
            0.3894,
            0.3645,
            0.3493,
            0.3605,
            0.4061,
            0.4068,
            0.3867,
            0.3631,
            0.3533,
            0.3846,
            0.4352,
            0.4361,
            0.4281,
            0.4389,
            0.4069,
            0.3925,
            0.4198,
            0.4392,
            0.4454,
            0.4782,
            0.4229,
            0.3678,
            0.3769,
            0.3647,
            0.384,
            0.3797,
            0.3656,
            0.3468,
            0.3655,
            0.3932,
            0.4555,
            0.4489,
            0.3975,
            0.4077,
            0.4029,
            0.4036,
            0.3981,
            0.3745,
            0.3402,
            0.3369,
            0.3606,
            0.3809,
            0.3382,
            0.309,
            0.307,
            0.3329,
            0.3422,
            0.3703,
            0.3883,
            0.3842,
            0.411,
            0.3926,
            0.3606,
            0.3502,
            0.3619,
            0.3345,
            0.3414,
            0.3525,
            0.3602,
            0.3387,
            0.3457,
            0.3848,
            0.3621,
            0.3583,
            0.3049,
            0.3077,
            0.3142,
            0.3053,
            0.3478,
            0.3532,
            0.3504,
            0.355,
            0.3369,
            0.3508,
            0.3323,
            0.3069,
            0.3389,
            0.3691,
            0.3525,
            0.2992,
            0.2334,
            0.1898,
            0.1851,
            0.1768,
            0.168,
            0.1663,
            0.1679,
            0.1781,
            0.17,
            0.1692,
            0.1615,
            0.1587,
            0.1762,
            0.1686,
            0.1549,
            0.1559,
            0.1551,
            0.1459,
            0.149,
            0.143,
            0.138,
            0.1431,
            0.1399,
            0.1464,
            0.1492,
            0.1469,
            0.1402,
            0.1393,
            0.1385,
            0.1414,
            0.1339,
            0.1332,
            0.123,
            0.1318,
            0.1289,
            0.1183,
            0.1304,
            0.1302,
            0.1171,
            0.1195,
            0.1196,
            0.1166,
            0.1217,
            0.1126,
            0.1167,
            0.1075,
            0.109,
            0.1145,
            0.1083,
            0.1099,
            0.1073,
            0.1012,
            0.1018,
            0.09961,
            0.1101,
            0.0953,
            0.09974,
            0.09746,
            0.09299,
            0.08995,
            0.09929,
            0.179,
            0.1875,
            0.1887,
            0.1836,
            0.1837,
            0.1729,
            0.1791,
            0.1738,
            0.1393,
            0.1459,
            0.143,
            0.1422,
            0.1322,
            0.1358,
            0.1354,
            0.1411,
            0.1459,
            0.1481,
            0.1379,
            0.1433,
            0.1387,
            0.1399,
            0.1338,
            0.1415,
            0.1379,
            0.133,
            0.1275,
            0.1366,
            0.1374,
            0.1285,
            0.1215,
            0.1281,
            0.1275,
            0.127,
            0.1332,
            0.1337,
            0.123,
            0.1305,
            0.1251,
            0.1192,
            0.1266,
            0.122,
            0.1221,
            0.1247,
            0.1184,
            0.1234,
            0.1177,
            0.1125,
            0.1184,
            0.1129,
            0.1208,
            0.1219,
            0.1113,
            0.1094,
            0.1081,
            0.1153,
            0.09889,
            0.1005,
            0.09924,
            0.09496,
            0.09262,
            0.0945,
            0.09543,
            0.09272,
            0.08954,
            0.08791,
            0.08581,
            0.08875,
            0.08991,
            0.08856,
            0.08522,
            0.08722,
            0.08582,
            0.08295,
            0.08086,
            0.0812,
            0.08054,
            0.08118,
            0.08025,
            0.07693,
            0.07709,
            0.07868,
            0.07872,
            0.0762,
            0.07379,
            0.07627,
            0.07246,
            0.07134,
            0.07638,
            0.06842,
            0.06738,
            0.06695,
            0.06672,
            0.0658,
            0.06634,
            0.06459,
            0.06429,
            0.06377,
            0.06929,
            0.07373,
            0.0775,
            0.07569,
            0.06731,
            0.06384,
            0.06004,
            0.06062,
            0.06482,
            0.06217,
            0.058,
            0.05852,
            0.05887,
            0.05456,
            0.05493,
            0.05346,
            0.05265,
            0.05213,
            0.05118,
            0.04983,
            0.04811,
            0.04847,
            0.04832,
            0.04803,
            0.04587,
            0.05197,
            0.04708,
            0.04507,
            0.04596,
            0.04304,
            0.0397,
            0.06438
          ]
        ]
      }
    },
    "003": {
      "common": null,
      "data": {
        "heads": [
          "EN",
          "DATA",
          "ERR-T",
          "ERR-S"
        ],
        "units": [
          "EV",
          "B",
          "B",
          "B"
        ],
        "data": [
          [
            105900.0,
            111300.0,
            117200.0,
            123500.0,
            130400.0,
            137900.0,
            146000.0,
            154900.0,
            164600.0,
            175200.0,
            186900.0,
            199800.0,
            214100.0,
            230000.0,
            247800.0,
            267600.0,
            290000.0,
            315300.0,
            344100.0,
            377000.0,
            414800.0,
            458600.0,
            509800.0,
            570100.0,
            641800.0,
            727800.0,
            832500.0,
            961500.0,
            1049000.0,
            1083000.0,
            1118000.0,
            1155000.0,
            1193000.0,
            1234000.0,
            1277000.0,
            1322000.0,
            1369000.0,
            1420000.0,
            1472000.0,
            1528000.0,
            1588000.0,
            1650000.0,
            1717000.0,
            1787000.0,
            1862000.0,
            1942000.0,
            2027000.0,
            2118000.0,
            2215000.0,
            2319000.0,
            2431000.0,
            2550000.0,
            2679000.0,
            2818000.0,
            2968000.0,
            3130000.0,
            3306000.0,
            3497000.0,
            3705000.0,
            3932000.0,
            4181000.0,
            4455000.0,
            4756000.0,
            5090000.0,
            5459000.0,
            5871000.0,
            6331000.0,
            6848000.0,
            7430000.0,
            8091000.0,
            8845000.0,
            9710000.0,
            10710000.0,
            11870000.0,
            13240000.0,
            14850000.0,
            16790000.0,
            19140000.0
          ],
          [
            3.22,
            3.279,
            3.14,
            3.15,
            3.091,
            3.157,
            2.981,
            3.088,
            3.034,
            3.089,
            3.058,
            2.915,
            3.103,
            3.045,
            2.971,
            2.937,
            3.002,
            2.821,
            2.784,
            2.823,
            2.683,
            2.545,
            2.462,
            2.475,
            2.334,
            2.186,
            2.154,
            2.047,
            1.925,
            2.013,
            1.982,
            1.809,
            1.982,
            1.844,
            1.987,
            1.983,
            1.997,
            1.936,
            1.978,
            1.935,
            1.878,
            2.101,
            2.115,
            2.102,
            2.125,
            2.063,
            2.163,
            2.188,
            2.246,
            2.163,
            2.1,
            2.104,
            2.076,
            2.077,
            2.116,
            2.109,
            2.152,
            2.073,
            1.989,
            1.914,
            1.967,
            1.91,
            2.295,
            1.936,
            2.02,
            2.0,
            2.462,
            2.549,
            2.602,
            2.413,
            2.377,
            2.418,
            2.462,
            2.641,
            2.95,
            2.619,
            2.715,
            2.208
          ],
          [
            0.1627,
            0.1647,
            0.1573,
            0.1567,
            0.1516,
            0.1571,
            0.1524,
            0.1538,
            0.1491,
            0.1504,
            0.1498,
            0.1413,
            0.1497,
            0.1461,
            0.1417,
            0.1385,
            0.1421,
            0.1321,
            0.1296,
            0.1323,
            0.1249,
            0.1173,
            0.1131,
            0.1138,
            0.107,
            0.09982,
            0.0988,
            0.09396,
            0.1082,
            0.1139,
            0.1113,
            0.09934,
            0.1097,
            0.1013,
            0.1118,
            0.1128,
            0.1146,
            0.1111,
            0.1147,
            0.1129,
            0.1101,
            0.1269,
            0.1282,
            0.1268,
            0.1297,
            0.1277,
            0.1383,
            0.142,
            0.1475,
            0.1408,
            0.1363,
            0.1387,
            0.1409,
            0.1435,
            0.1491,
            0.1494,
            0.153,
            0.1464,
            0.142,
            0.1366,
            0.1432,
            0.1432,
            0.1755,
            0.1472,
            0.1526,
            0.149,
            0.1836,
            0.1847,
            0.1831,
            0.1698,
            0.1643,
            0.1727,
            0.1817,
            0.2151,
            0.2457,
            0.2262,
            0.2537,
            0.2107
          ],
          [
            0.08205,
            0.08326,
            0.08032,
            0.07807,
            0.07177,
            0.07457,
            0.07201,
            0.07435,
            0.06959,
            0.06841,
            0.06658,
            0.06067,
            0.06585,
            0.06335,
            0.05964,
            0.05744,
            0.05852,
            0.05176,
            0.04982,
            0.05095,
            0.04481,
            0.04081,
            0.03885,
            0.04042,
            0.0377,
            0.03332,
            0.03407,
            0.03355,
            0.06991,
            0.07436,
            0.07193,
            0.06201,
            0.0695,
            0.063,
            0.07213,
            0.07386,
            0.07618,
            0.07365,
            0.07697,
            0.07623,
            0.07482,
            0.08937,
            0.09053,
            0.08913,
            0.09221,
            0.09177,
            0.1023,
            0.1063,
            0.1116,
            0.1057,
            0.102,
            0.1049,
            0.109,
            0.1122,
            0.1182,
            0.1187,
            0.1217,
            0.116,
            0.1133,
            0.1089,
            0.1154,
            0.1172,
            0.145,
            0.1212,
            0.1254,
            0.1215,
            0.1501,
            0.1486,
            0.1449,
            0.1345,
            0.1287,
            0.1381,
            0.148,
            0.183,
            0.2108,
            0.1965,
            0.2257,
            0.1885
          ]
        ]
      }
    }
  },
  "experimental_conditions": {
    "001": {
      "0": {
        "correction": [
          {
            "x4_code": null,
            "free_txt": [
              "DATA CORRECTED FOR BACKGROUNDS, ESPECIALLY INSCATTERED-",
              "  NEUTRON-INDUCED EVENTS AND SPONTANEOUS FISSION,",
              "  ALSO FOR DEAD-TIME, SOURCE POSITION, RELATIVISTIC",
              "  EFFECTS AND DETECTOR EFFICIENCY."
            ]
          }
        ],
        "decay-data": [
          {
            "x4_code": "(95-AM-242-M,141.YR)",
            "free_txt": []
          }
        ],
        "detector": [
          {
            "x4_code": "(FISCH)",
            "free_txt": [
              " HEMISPHERICAL PLATE FISSION IONIZATION",
              "  CHAMBER WITH FIVE PAIRS OF PLATES. THREE PAIRS",
              "  CONTAINED 242M-AM, ONE PAIR 235-U AND ONE PAIR",
              "  252-CF (INHERENTLY FREE OF ALPHA PILEUP)."
            ]
          },
          {
            "x4_code": "(SCIN)",
            "free_txt": [
              " A XENON GAS SCINTILLATOR WITH 6-LI AS A",
              "  NEUTRON FLUX MONITOR."
            ]
          }
        ],
        "facility": [
          {
            "x4_code": "(LINAC,1USAORL)",
            "free_txt": [
              " ORELA"
            ]
          }
        ],
        "method": [
          {
            "x4_code": "(TOF)",
            "free_txt": [
              "  9.1 METER FLIGHT PATH"
            ]
          }
        ],
        "sample": [
          {
            "x4_code": null,
            "free_txt": [
              "APPROXIMATELY 507+-5 MICROGRAMS OF 242M-AM ON THREE",
              " PLATES. THE DEPOSITS ARE 1.0 CM DIAMETER AND",
              " 215 MICROGRAMS/CM**2 THICK. SAMPLES CONTAINED",
              " 0.79 PERCENT241-AM. 242-CM DECAY PRODUCT WAS",
              " SEPARATED CHEMICALLY 75 HOURS PRIOR TO THE",
              " BEGINNING OF MEASUREMENTS."
            ]
          }
        ],
        "status": [
          {
            "x4_code": "(APRVD)",
            "free_txt": [
              " J.W.T.DABBS, 84/6/8.",
              "        TOTAL ERRORS MODIFIED AS PER THE AUTHOR(840413)"
            ]
          }
        ]
      }
    },
    "002": {
      "0": {
        "err-analys": [
          {
            "x4_code": "(ERR-T)",
            "free_txt": [
              " TOTAL UNCERTAINTY"
            ]
          },
          {
            "x4_code": "(ERR-S)",
            "free_txt": [
              " STATISTICAL UNCERTAINTY          (PERCENT)",
              "   235-U COUNTING EFFICIENCY               2.0",
              "   242M-AM COUNTING EFFICIENCY             1.33",
              "   MASS OF 235-U                           1.0",
              "   MASS OF 242M-AM                         1.0",
              "   6-LI (N,ALPHA) CROSS SECTION            1.0",
              "   235-U FISSION INTEGRAL                  1.0",
              " UNCERTAINTIES IN -",
              "    INSCATTERING CORRECTION               10.",
              "    TRANSMISSION LOSS                     10."
            ]
          }
        ],
        "monitor": [
          {
            "x4_code": "(92-U-235(N,F),,INT)",
            "free_txt": []
          },
          {
            "x4_code": "(3-LI-6(N,T)2-HE-4,,SIG)",
            "free_txt": [
              " ENDF/B-V VALUES AS A SHAPE",
              "  STANDARD NORMALIZED TO THE 235-U(N,F) INTEGRAL",
              "  FROM 7.8 TO 11. EV."
            ]
          }
        ]
      }
    },
    "003": {
      "0": {
        "err-analys": [
          {
            "x4_code": "(ERR-T)",
            "free_txt": [
              " TOTAL UNCERTAINTY"
            ]
          },
          {
            "x4_code": "(ERR-S)",
            "free_txt": [
              " STATISTICAL UNCERTAINTY          (PERCENT)",
              "   235-U COUNTING EFFICIENCY               2.0",
              "   242M-AM COUNTING EFFICIENCY             1.33",
              "   MASS OF 235-U                           1.0",
              "   MASS OF 242M-AM                         1.0",
              "   235-U FISSION CROSS SECTION             3.0",
              " UNCERTAINTIES IN -",
              "    INSCATTERING CORRECTION               10.",
              "    TRANSMISSION LOSS (1-T)               10."
            ]
          }
        ],
        "monitor": [
          {
            "x4_code": "(92-U-235(N,F),,SIG)",
            "free_txt": [
              " ENDF/B-V",
              "   SAMPLE CONTAINED 168+-.9 MICROGRAMS 235-U IN A",
              " DEPOSIT 1. CM DIAMETER AND 214 MICROGRAMS/CM**2",
              " THICKNESS. ENDF/B V WAS USED FOR THE CROSS SECTION."
            ]
          }
        ]
      }
    }
  }
}