{
  "entry": "12868",
  "last_updated": "2006-07-20",
  "number_of_revisions": "3",
  "histories": [
    {
      "x4_code": "(840608C)",
      "free_txt": []
    }
  ],
  "bib_record": {
    "title": "MEASUREMENT OF THE FISSION CROSS SECTION OF 98-CF-249 A",
    "authors": [
      {
        "name": "J.W.T.Dabbs"
      },
      {
        "name": "C.E.Bemis Jr"
      }
    ],
    "institutes": [
      {
        "x4_code": "(1USAORL)",
        "free_txt": []
      }
    ],
    "references": [
      {
        "x4_code": "(R,ORNL-5787,187,8111)",
        "free_txt": [],
        "publication_year": "1981",
        "pointer": "0"
      }
    ],
    "facilities": [
      {
        "x4_code": "(LINAC,1USAORL)",
        "free_txt": [
          " ORELA"
        ],
        "pointer": "0",
        "facility_type": "(LINAC)",
        "institute": "(1USAORL)"
      }
    ]
  },
  "reactions": {
    "002": {
      "0": {
        "x4_code": "(98-CF-249(N,F),,SIG)",
        "children": [
          {
            "code": [
              "98-CF-249",
              [
                "N,F"
              ],
              ",,SIG"
            ],
            "type": null,
            "target": "98-CF-249",
            "process": "N,F",
            "sf49": ",,SIG",
            "sf4": null,
            "sf5": null,
            "sf6": "SIG",
            "sf7": null,
            "sf8": null,
            "sf9": null
          }
        ],
        "type": null,
        "free_text": ""
      }
    },
    "003": {
      "0": {
        "x4_code": "(98-CF-249(N,F),,SIG)",
        "children": [
          {
            "code": [
              "98-CF-249",
              [
                "N,F"
              ],
              ",,SIG"
            ],
            "type": null,
            "target": "98-CF-249",
            "process": "N,F",
            "sf49": ",,SIG",
            "sf4": null,
            "sf5": null,
            "sf6": "SIG",
            "sf7": null,
            "sf8": null,
            "sf9": null
          }
        ],
        "type": null,
        "free_text": ""
      }
    }
  },
  "data_tables": {
    "001": {
      "common": null
    },
    "002": {
      "common": {
        "heads": [
          "EN-NRM-MIN",
          "EN-NRM-MAX",
          "MONIT"
        ],
        "units": [
          "EV",
          "EV",
          "B*EV"
        ],
        "data": [
          [
            7.8
          ],
          [
            11.0
          ],
          [
            248.2
          ]
        ]
      },
      "data": {
        "heads": [
          "EN",
          "DATA",
          "ERR-T",
          "ERR-S"
        ],
        "units": [
          "EV",
          "B",
          "B",
          "B"
        ],
        "data": [
          [
            0.006461,
            0.006896,
            0.007376,
            0.007908,
            0.0085,
            0.009161,
            0.009902,
            0.01074,
            0.01168,
            0.01276,
            0.01399,
            0.01541,
            0.01682,
            0.0182,
            0.01977,
            0.02154,
            0.02356,
            0.02588,
            0.02857,
            0.03169,
            0.03535,
            0.03969,
            0.04488,
            0.05116,
            0.05887,
            0.06845,
            0.08058,
            0.09626,
            0.117,
            0.1453,
            0.1853,
            0.2376,
            0.2715,
            0.2824,
            0.294,
            0.3063,
            0.3193,
            0.3333,
            0.3481,
            0.364,
            0.3809,
            0.3991,
            0.4152,
            0.4289,
            0.4432,
            0.4583,
            0.4741,
            0.4908,
            0.5084,
            0.5269,
            0.5465,
            0.5672,
            0.5891,
            0.6123,
            0.6368,
            0.6528,
            0.6594,
            0.6661,
            0.6729,
            0.6798,
            0.6869,
            0.694,
            0.7013,
            0.7086,
            0.7161,
            0.7237,
            0.7315,
            0.7393,
            0.7473,
            0.7681,
            0.8027,
            0.8398,
            0.8794,
            0.922,
            0.9677,
            1.017,
            1.07,
            1.127,
            1.189,
            1.257,
            1.33,
            1.41,
            1.497,
            1.593,
            1.672,
            1.73,
            1.788,
            1.849,
            1.913,
            1.981,
            2.052,
            2.127,
            2.207,
            2.291,
            2.38,
            2.474,
            2.573,
            2.679,
            2.792,
            2.912,
            3.04,
            3.176,
            3.322,
            3.41,
            3.434,
            3.459,
            3.484,
            3.51,
            3.535,
            3.561,
            3.588,
            3.614,
            3.641,
            3.668,
            3.696,
            3.724,
            3.752,
            3.78,
            3.809,
            3.838,
            3.867,
            3.897,
            3.927,
            3.958,
            3.989,
            4.02,
            4.051,
            4.083,
            4.116,
            4.148,
            4.181,
            4.215,
            4.249,
            4.283,
            4.318,
            4.353,
            4.388,
            4.424,
            4.461,
            4.497,
            4.535,
            4.573,
            4.611,
            4.65,
            4.689,
            4.729,
            4.769,
            4.81,
            4.851,
            4.893,
            4.935,
            4.978,
            5.022,
            5.066,
            5.11,
            5.156,
            5.201,
            5.248,
            5.295,
            5.343,
            5.391,
            5.44,
            5.49,
            5.54,
            5.591,
            5.643,
            5.696,
            5.749,
            5.803,
            5.858,
            5.913,
            5.969,
            6.027,
            6.085,
            6.143,
            6.203,
            6.264,
            6.325,
            6.387,
            6.451,
            6.515,
            6.579,
            6.629,
            6.656,
            6.676,
            6.696,
            6.717,
            6.737,
            6.757,
            6.778,
            6.799,
            6.819,
            6.84,
            6.861,
            6.882,
            6.903,
            6.924,
            6.946,
            6.967,
            6.989,
            7.01,
            7.032,
            7.054,
            7.076,
            7.098,
            7.12,
            7.142,
            7.164,
            7.187,
            7.209,
            7.232,
            7.255,
            7.278,
            7.301,
            7.324,
            7.347,
            7.37,
            7.394,
            7.417,
            7.441,
            7.464,
            7.488,
            7.512,
            7.536,
            7.561,
            7.585,
            7.609,
            7.634,
            7.659,
            7.683,
            7.708,
            7.733,
            7.759,
            7.784,
            7.809,
            7.835,
            7.86,
            7.886,
            7.912,
            7.938,
            7.964,
            7.991,
            8.017,
            8.044,
            8.07,
            8.097,
            8.124,
            8.151,
            8.178,
            8.206,
            8.233,
            8.261,
            8.289,
            8.317,
            8.345,
            8.373,
            8.401,
            8.43,
            8.458,
            8.487,
            8.516,
            8.545,
            8.574,
            8.604,
            8.633,
            8.663,
            8.693,
            8.723,
            8.753,
            8.783,
            8.814,
            8.844,
            8.875,
            8.906,
            8.937,
            8.968,
            9.0,
            9.031,
            9.063,
            9.095,
            9.127,
            9.159,
            9.192,
            9.224,
            9.257,
            9.29,
            9.323,
            9.357,
            9.39,
            9.424,
            9.458,
            9.492,
            9.526,
            9.56,
            9.595,
            9.63,
            9.665,
            9.7,
            9.735,
            9.771,
            9.806,
            9.842,
            9.879,
            9.915,
            9.951,
            9.988,
            10.03,
            10.06,
            10.1,
            10.14,
            10.17,
            10.21,
            10.25,
            10.29,
            10.33,
            10.37,
            10.41,
            10.45,
            10.48,
            10.52,
            10.56,
            10.6,
            10.65,
            10.69,
            10.73,
            10.77,
            10.81,
            10.85,
            10.89,
            10.93,
            10.98,
            11.02,
            11.06,
            11.11,
            11.15,
            11.19,
            11.24,
            11.28,
            11.32,
            11.37,
            11.41,
            11.46,
            11.5,
            11.55,
            11.6,
            11.64,
            11.69,
            11.74,
            11.78,
            11.83,
            11.88,
            11.93,
            11.97,
            12.02,
            12.07,
            12.12,
            12.17,
            12.22,
            12.27,
            12.32,
            12.37,
            12.42,
            12.47,
            12.52,
            12.58,
            12.63,
            12.68,
            12.73,
            12.79,
            12.84,
            12.89,
            12.95,
            13.0,
            13.06,
            13.11,
            13.17,
            13.22,
            13.28,
            13.34,
            13.39,
            13.45,
            13.51,
            13.57,
            13.63,
            13.69,
            13.74,
            13.8,
            13.86,
            13.92,
            13.99,
            14.05,
            14.11,
            14.17,
            14.23,
            14.3,
            14.36,
            14.42,
            14.49,
            14.55,
            14.62,
            14.68,
            14.75,
            14.81,
            14.88,
            14.95,
            15.02,
            15.08,
            15.15,
            15.22,
            15.29,
            15.36,
            15.43,
            15.5,
            15.57,
            15.65,
            15.72,
            15.79,
            15.87,
            15.94,
            16.01,
            16.09,
            16.16,
            16.24,
            16.32,
            16.39,
            16.47,
            16.55,
            16.63,
            16.71,
            16.79,
            16.87,
            16.95,
            17.03,
            17.11,
            17.2,
            17.28,
            17.37,
            17.45,
            17.54,
            17.62,
            17.71,
            17.8,
            17.88,
            17.97,
            18.06,
            18.15,
            18.24,
            18.33,
            18.42,
            18.52,
            18.61,
            18.7,
            18.8,
            18.9,
            18.99,
            19.09,
            19.19,
            19.28,
            19.38,
            19.48,
            19.58,
            19.69,
            19.79,
            19.89,
            20.0,
            20.1,
            20.21,
            20.31,
            20.42,
            20.53,
            20.64,
            20.75,
            20.86,
            20.97,
            21.08,
            21.19,
            21.31,
            21.42,
            21.54,
            21.66,
            21.78,
            21.89,
            22.02,
            22.14,
            22.26,
            22.38,
            22.51,
            22.63,
            22.76,
            22.88,
            23.01,
            23.14,
            23.27,
            23.4,
            23.54,
            23.67,
            23.81,
            23.94,
            24.08,
            24.22,
            24.36,
            24.5,
            24.64,
            24.78,
            24.93,
            25.07,
            25.22,
            25.37,
            25.52,
            25.67,
            25.82,
            25.98,
            26.13,
            26.29,
            26.43,
            26.54,
            26.62,
            26.7,
            26.78,
            26.86,
            26.94,
            27.02,
            27.11,
            27.19,
            27.27,
            27.36,
            27.44,
            27.52,
            27.61,
            27.69,
            27.78,
            27.86,
            27.95,
            28.04,
            28.12,
            28.21,
            28.3,
            28.39,
            28.47,
            28.56,
            28.65,
            28.74,
            28.83,
            28.92,
            29.01,
            29.1,
            29.2,
            29.29,
            29.38,
            29.47,
            29.57,
            29.66,
            29.76,
            29.85,
            29.95,
            30.04,
            30.14,
            30.24,
            30.33,
            30.43,
            30.53,
            30.63,
            30.73,
            30.83,
            30.93,
            31.03,
            31.13,
            31.23,
            31.33,
            31.43,
            31.54,
            31.64,
            31.75,
            31.85,
            31.96,
            32.06,
            32.17,
            32.27,
            32.38,
            32.49,
            32.6,
            32.71,
            32.82,
            32.93,
            33.04,
            33.15,
            33.26,
            33.37,
            33.48,
            33.6,
            33.71,
            33.83,
            33.94,
            34.06,
            34.17,
            34.29,
            34.41,
            34.53,
            34.64,
            34.76,
            34.88,
            35.0,
            35.12,
            35.25,
            35.37,
            35.49,
            35.62,
            35.74,
            35.87,
            35.99,
            36.12,
            36.24,
            36.37,
            36.5,
            36.63,
            36.76,
            36.89,
            37.02,
            37.15,
            37.28,
            37.42,
            37.55,
            37.69,
            37.82,
            37.96,
            38.09,
            38.23,
            38.37,
            38.51,
            38.65,
            38.79,
            38.93,
            39.07,
            39.22,
            39.36,
            39.5,
            39.65,
            39.8,
            39.94,
            40.09,
            40.24,
            40.39,
            40.54,
            40.69,
            40.84,
            40.99,
            41.15,
            41.3,
            41.46,
            41.61,
            41.77,
            41.93,
            42.09,
            42.25,
            42.41,
            42.57,
            42.73,
            42.9,
            43.06,
            43.23,
            43.39,
            43.56,
            43.73,
            43.9,
            44.07,
            44.24,
            44.41,
            44.58,
            44.76,
            44.93,
            45.11,
            45.29,
            45.47,
            45.64,
            45.83,
            46.01,
            46.19,
            46.37,
            46.56,
            46.74,
            46.93,
            47.12,
            47.31,
            47.5,
            47.69,
            47.88,
            48.08,
            48.27,
            48.47,
            48.67,
            48.86,
            49.06,
            49.27,
            49.47,
            49.67,
            49.88,
            50.08,
            50.29,
            50.5,
            50.71,
            50.92,
            51.13,
            51.35,
            51.56,
            51.78,
            52.0,
            52.22,
            52.44,
            52.66,
            52.88,
            53.11,
            53.34,
            53.56,
            53.79,
            54.02,
            54.26,
            54.49,
            54.73,
            54.96,
            55.2,
            55.44,
            55.68,
            55.93,
            56.17,
            56.42,
            56.67,
            56.92,
            57.17,
            57.42,
            57.68,
            57.93,
            58.19,
            58.45,
            58.71,
            58.97,
            59.24,
            59.51,
            59.78,
            60.05,
            60.32,
            60.59,
            60.87,
            61.15,
            61.43,
            61.71,
            61.99,
            62.28,
            62.57,
            62.86,
            63.1,
            63.29,
            63.49,
            63.69,
            63.89,
            64.09,
            64.29,
            64.49,
            64.69,
            64.89,
            65.1,
            65.3,
            65.51,
            65.71,
            65.92,
            66.13,
            66.34,
            66.55,
            66.76,
            66.97,
            67.19,
            67.4,
            67.62,
            67.83,
            68.05,
            68.27,
            68.49,
            68.71,
            68.93,
            69.16,
            69.38,
            69.61,
            69.83,
            70.06,
            70.29,
            70.52,
            70.75,
            70.98,
            71.22,
            71.45,
            71.69,
            71.92,
            72.16,
            72.4,
            72.64,
            72.88,
            73.12,
            73.37,
            73.61,
            73.86,
            74.11,
            74.36,
            74.61,
            74.86,
            75.11,
            75.36,
            75.62,
            75.88,
            76.13,
            76.39,
            76.65,
            76.91,
            77.18,
            77.44,
            77.71,
            77.98,
            78.24,
            78.51,
            78.78,
            79.06,
            79.33,
            79.61,
            79.88,
            80.16,
            80.44,
            80.72,
            81.01,
            81.29,
            81.58,
            81.86,
            82.15,
            82.44,
            82.74,
            83.03,
            83.32,
            83.62,
            83.92,
            84.22,
            84.52,
            84.82,
            85.13,
            85.44,
            85.74,
            86.05,
            86.36,
            86.68,
            86.99,
            87.31,
            87.63,
            87.95,
            88.27,
            88.59,
            88.92,
            89.24,
            89.57,
            89.9,
            90.24,
            90.57,
            90.91,
            91.25,
            91.59,
            91.93,
            92.27,
            92.62,
            92.97,
            93.31,
            93.67,
            94.02,
            94.38,
            94.73,
            95.09,
            95.46,
            95.82,
            96.18,
            96.55,
            96.92,
            97.3,
            97.67,
            98.05,
            98.43,
            98.81,
            99.19,
            99.57,
            99.96,
            100.4,
            100.7,
            101.1,
            101.5,
            101.9,
            102.3,
            102.7,
            103.1,
            103.6,
            104.0,
            104.4,
            104.8,
            105.2,
            105.6,
            106.0,
            106.3,
            106.5,
            106.7,
            106.9,
            107.1,
            107.3,
            107.6,
            107.8,
            108.0,
            108.2,
            108.4,
            108.7,
            108.9,
            109.1,
            109.3,
            109.5,
            109.8,
            110.0,
            110.2,
            110.4,
            110.7,
            110.9,
            111.1,
            111.3,
            111.6,
            111.8,
            112.0,
            112.3,
            112.5,
            112.7,
            113.0,
            113.2,
            113.4,
            113.7,
            113.9,
            114.1,
            114.4,
            114.6,
            114.9,
            115.1,
            115.3,
            115.6,
            115.8,
            116.1,
            116.3,
            116.6,
            116.8,
            117.0,
            117.3,
            117.5,
            117.8,
            118.0,
            118.3,
            118.5,
            118.8,
            119.0,
            119.3,
            119.5,
            119.8,
            120.1,
            120.3,
            120.6,
            120.8,
            121.1,
            121.3,
            121.6,
            121.9,
            122.1,
            122.4,
            122.7,
            122.9,
            123.2,
            123.5,
            123.7,
            124.0,
            124.3,
            124.5,
            124.8,
            125.1,
            125.3,
            125.6,
            125.9,
            126.2,
            126.4,
            126.7,
            127.0,
            127.3,
            127.6,
            127.8,
            128.1,
            128.4,
            128.7,
            129.0,
            129.3,
            129.5,
            129.8,
            130.1,
            130.4,
            130.7,
            131.0,
            131.3,
            131.6,
            131.9,
            132.2,
            132.5,
            132.8,
            133.0,
            133.3,
            133.6,
            133.9,
            134.3,
            134.6,
            134.9,
            135.2,
            135.5,
            135.8,
            136.1,
            136.4,
            136.7,
            137.0,
            137.3,
            137.6,
            138.0,
            138.3,
            138.6,
            138.9,
            139.2,
            139.5,
            139.9,
            140.2,
            140.5,
            140.8,
            141.2,
            141.5,
            141.8,
            142.1,
            142.5,
            142.8,
            143.1,
            143.5,
            143.8,
            144.1,
            144.5,
            144.8,
            145.2,
            145.5,
            145.8,
            146.2,
            146.5,
            146.9,
            147.2,
            147.6,
            147.9,
            148.3,
            148.6,
            149.0,
            149.3,
            149.7,
            150.0,
            150.4,
            150.8,
            151.1,
            151.5,
            151.8,
            152.2,
            152.6,
            152.9,
            153.3,
            153.7,
            154.1,
            154.4,
            154.8,
            155.2,
            155.6,
            155.9,
            156.3,
            156.7,
            157.1,
            157.5,
            157.8,
            158.2,
            158.6,
            159.0,
            159.4,
            159.8,
            160.2,
            160.6,
            161.0,
            161.4,
            161.8,
            162.2,
            162.6,
            163.0,
            163.4,
            163.8,
            164.2,
            164.6,
            165.0,
            165.4,
            165.9,
            166.3,
            166.7,
            167.1,
            167.5,
            167.9,
            168.4,
            168.8,
            169.2,
            169.7,
            170.1,
            170.5,
            171.0,
            171.4,
            171.8,
            172.3,
            172.7,
            173.1,
            173.6,
            174.0,
            174.5,
            174.9,
            175.4,
            175.8,
            176.3,
            176.7,
            177.2,
            177.7,
            178.1,
            178.6,
            179.1,
            179.5,
            180.0,
            180.5,
            180.9,
            181.4,
            181.9,
            182.4,
            182.8,
            183.3,
            183.8,
            184.3,
            184.8,
            185.3,
            185.8,
            186.3,
            186.8,
            187.2,
            187.7,
            188.2,
            188.8,
            189.3,
            189.8,
            190.3,
            190.8,
            191.3,
            191.8,
            192.3,
            192.9,
            193.4,
            193.9,
            194.4,
            195.0,
            195.5,
            196.0,
            196.6,
            197.1,
            197.6,
            198.2,
            198.7,
            199.3,
            199.8,
            200.4,
            200.9,
            201.5,
            202.0,
            202.6,
            203.1,
            203.7,
            204.3,
            204.8,
            205.4,
            206.0,
            206.6,
            207.1,
            207.7,
            208.3,
            208.9,
            209.5,
            210.1,
            210.7,
            211.3,
            211.9,
            212.5,
            213.1,
            213.7,
            214.3,
            214.9,
            215.5,
            216.1,
            216.7,
            217.4,
            218.0,
            218.6,
            219.3,
            219.9,
            220.5,
            221.2,
            221.8,
            222.4,
            223.1,
            223.7,
            224.4,
            225.0,
            225.7,
            226.4,
            227.0,
            227.7,
            228.4,
            229.0,
            229.7,
            230.4,
            231.1,
            231.8,
            232.4,
            233.1,
            233.8,
            234.5,
            235.2,
            235.9,
            236.6,
            237.3,
            238.1,
            238.8,
            239.5,
            240.2,
            240.9,
            241.7,
            242.4,
            243.1,
            243.9,
            244.6,
            245.4,
            246.1,
            246.9,
            247.6,
            248.4,
            249.2,
            249.9,
            250.7,
            251.5,
            252.2,
            253.0,
            253.8,
            254.6,
            255.4,
            256.2,
            257.0,
            257.8,
            258.6,
            259.4,
            260.2,
            261.0,
            261.9,
            262.7,
            263.5,
            264.3,
            265.2,
            266.0,
            266.9,
            267.7,
            268.6,
            269.4,
            270.3,
            271.2,
            272.0,
            272.9,
            273.8,
            274.7,
            275.6,
            276.5,
            277.3,
            278.2,
            279.2,
            280.1,
            281.0,
            281.9,
            282.8,
            283.7,
            284.7,
            285.6,
            286.6,
            287.5,
            288.5,
            289.4,
            290.4,
            291.3,
            292.3,
            293.3,
            294.3,
            295.2,
            296.2,
            297.2,
            298.2,
            299.2,
            300.2,
            301.3,
            302.3,
            303.3,
            304.3,
            305.4,
            306.4,
            307.4,
            308.5,
            309.6,
            310.6,
            311.7,
            312.8,
            313.8,
            314.9,
            316.0,
            317.1,
            318.2,
            319.3,
            320.4,
            321.5,
            322.7,
            323.8,
            324.9,
            326.1,
            327.2,
            328.4,
            329.5,
            330.7,
            331.9,
            333.1,
            334.2,
            335.4,
            336.6,
            337.8,
            339.1,
            340.3,
            341.5,
            342.7,
            344.0,
            345.2,
            346.5,
            347.7,
            349.0,
            350.3,
            351.5,
            352.8,
            354.1,
            355.4,
            356.7,
            358.0,
            359.4,
            360.7,
            362.0,
            363.4,
            364.7,
            366.1,
            367.4,
            368.8,
            370.2,
            371.6,
            373.0,
            374.4,
            375.8,
            377.2,
            378.6,
            380.1,
            381.5,
            383.0,
            384.4,
            385.9,
            387.4,
            388.9,
            390.4,
            391.9,
            393.4,
            394.9,
            396.4,
            398.0,
            399.5,
            401.1,
            402.7,
            404.2,
            405.8,
            407.4,
            409.0,
            410.6,
            412.3,
            413.9,
            415.5,
            417.2,
            418.9,
            420.5,
            422.2,
            423.9,
            425.4,
            426.0,
            426.5,
            426.9,
            427.4,
            428.1,
            428.7,
            429.4,
            430.0,
            430.7,
            431.3,
            432.0,
            432.6,
            433.3,
            433.9,
            434.6,
            435.3,
            435.9,
            436.6,
            437.3,
            437.9,
            438.6,
            439.3,
            439.9,
            440.6,
            441.3,
            442.0,
            442.6,
            443.3,
            444.0,
            444.7,
            445.4,
            446.1,
            446.7,
            447.4,
            448.1,
            448.8,
            449.5,
            450.2,
            450.9,
            451.6,
            452.3,
            453.0,
            453.7,
            454.4,
            455.1,
            455.8,
            456.5,
            457.3,
            458.0,
            458.7,
            459.4,
            460.1,
            460.8,
            461.6,
            462.3,
            463.0,
            463.7,
            464.5,
            465.2,
            465.9,
            466.7,
            467.4,
            468.1,
            468.9,
            469.6,
            470.4,
            471.1,
            471.9,
            472.6,
            473.4,
            474.1,
            474.9,
            475.6,
            476.4,
            477.1,
            477.9,
            478.7,
            479.4,
            480.2,
            481.0,
            481.7,
            482.5,
            483.3,
            484.1,
            484.8,
            485.6,
            486.4,
            487.2,
            488.0,
            488.8,
            489.5,
            490.3,
            491.1,
            491.9,
            492.7,
            493.5,
            494.3,
            495.1,
            495.9,
            496.7,
            497.5,
            498.3,
            499.2,
            500.0,
            500.8,
            501.6,
            502.4,
            503.3,
            504.1,
            504.9,
            505.7,
            506.6,
            507.4,
            508.2,
            509.1,
            509.9,
            510.7,
            511.6,
            512.4,
            513.3,
            514.1,
            515.0,
            515.8,
            516.7,
            517.5,
            518.4,
            519.3,
            520.1,
            521.0,
            521.9,
            522.7,
            523.6,
            524.5,
            525.4,
            526.2,
            527.1,
            528.0,
            528.9,
            529.8,
            530.7,
            531.6,
            532.5,
            533.4,
            534.3,
            535.2,
            536.1,
            537.0,
            537.9,
            538.8,
            539.7,
            540.6,
            541.5,
            542.5,
            543.4,
            544.3,
            545.2,
            546.2,
            547.1,
            548.0,
            549.0,
            549.9,
            550.9,
            551.8,
            552.7,
            553.7,
            554.6,
            555.6,
            556.6,
            557.5,
            558.5,
            559.4,
            560.4,
            561.4,
            562.3,
            563.3,
            564.3,
            565.3,
            566.3,
            567.2,
            568.2,
            569.2,
            570.2,
            571.2,
            572.2,
            573.2,
            574.2,
            575.2,
            576.2,
            577.2,
            578.2,
            579.3,
            580.3,
            581.3,
            582.3,
            583.3,
            584.4,
            585.4,
            586.4,
            587.5,
            588.5,
            589.6,
            590.6,
            591.7,
            592.7,
            593.8,
            594.8,
            595.9,
            596.9,
            598.0,
            599.1,
            600.1,
            601.2,
            602.3,
            603.4,
            604.5,
            605.5,
            606.6,
            607.7,
            608.8,
            609.9,
            611.0,
            612.1,
            613.2,
            614.3,
            615.4,
            616.6,
            617.7,
            618.8,
            619.9,
            621.0,
            622.2,
            623.3,
            624.4,
            625.6,
            626.7,
            627.9,
            629.0,
            630.2,
            631.3,
            632.5,
            633.7,
            634.8,
            636.0,
            637.2,
            638.3,
            639.5,
            640.7,
            641.9,
            643.1,
            644.3,
            645.4,
            646.6,
            647.8,
            649.1,
            650.3,
            651.5,
            652.7,
            653.9,
            655.1,
            656.4,
            657.6,
            658.8,
            660.0,
            661.3,
            662.5,
            663.8,
            665.0,
            666.3,
            667.5,
            668.8,
            670.1,
            671.3,
            672.6,
            673.9,
            675.1,
            676.4,
            677.7,
            679.0,
            680.3,
            681.6,
            682.9,
            684.2,
            685.5,
            686.8,
            688.1,
            689.4,
            690.8,
            692.1,
            693.4,
            694.8,
            696.1,
            697.4,
            698.8,
            700.1,
            701.5,
            702.8,
            704.2,
            705.6,
            706.9,
            708.3,
            709.7,
            711.1,
            712.4,
            713.8,
            715.2,
            716.6,
            718.0,
            719.4,
            720.8,
            722.3,
            723.7,
            725.1,
            726.5,
            728.0,
            729.4,
            730.8,
            732.3,
            733.7,
            735.2,
            736.6,
            738.1,
            739.6,
            741.0,
            742.5,
            744.0,
            745.5,
            746.9,
            748.4,
            749.9,
            751.4,
            752.9,
            754.4,
            756.0,
            757.5,
            759.0,
            760.8,
            762.8,
            764.9,
            766.9,
            769.0,
            771.1,
            773.2,
            775.3,
            777.4,
            779.5,
            781.6,
            783.7,
            785.9,
            788.0,
            790.2,
            792.3,
            794.5,
            796.7,
            798.9,
            801.1,
            803.3,
            805.5,
            807.7,
            810.0,
            812.2,
            814.5,
            816.8,
            819.0,
            821.3,
            823.6,
            825.9,
            828.2,
            830.5,
            832.9,
            835.2,
            837.6,
            839.9,
            842.3,
            844.7,
            847.1,
            849.5,
            851.9,
            854.3,
            856.8,
            859.2,
            861.7,
            864.1,
            866.6,
            869.1,
            871.6,
            874.1,
            876.6,
            879.1,
            881.7,
            884.2,
            886.8,
            889.4,
            892.0,
            894.5,
            897.2,
            899.8,
            902.4,
            905.0,
            907.7,
            910.4,
            913.0,
            915.7,
            918.4,
            921.1,
            923.9,
            926.6,
            929.4,
            932.1,
            934.9,
            937.7,
            940.5,
            943.3,
            946.1,
            949.0,
            951.8,
            954.7,
            957.5,
            960.4,
            963.3,
            966.2,
            969.2,
            972.1,
            975.1,
            978.0,
            981.0,
            984.0,
            987.0,
            990.0,
            993.1,
            996.1,
            999.2,
            1002.0,
            1005.0,
            1008.0,
            1012.0,
            1015.0,
            1018.0,
            1021.0,
            1024.0,
            1027.0,
            1031.0,
            1034.0,
            1037.0,
            1040.0,
            1044.0,
            1047.0,
            1050.0,
            1054.0,
            1057.0,
            1060.0,
            1064.0,
            1067.0,
            1070.0,
            1074.0,
            1077.0,
            1081.0,
            1084.0,
            1088.0,
            1091.0,
            1095.0,
            1098.0,
            1102.0,
            1105.0,
            1109.0,
            1112.0,
            1116.0,
            1120.0,
            1123.0,
            1127.0,
            1131.0,
            1134.0,
            1138.0,
            1142.0,
            1146.0,
            1149.0,
            1153.0,
            1157.0,
            1161.0,
            1165.0,
            1169.0,
            1172.0,
            1176.0,
            1180.0,
            1184.0,
            1188.0,
            1192.0,
            1196.0,
            1200.0,
            1204.0,
            1208.0,
            1213.0,
            1217.0,
            1221.0,
            1225.0,
            1229.0,
            1233.0,
            1238.0,
            1242.0,
            1246.0,
            1250.0,
            1255.0,
            1259.0,
            1263.0,
            1268.0,
            1272.0,
            1277.0,
            1281.0,
            1285.0,
            1290.0,
            1294.0,
            1299.0,
            1304.0,
            1308.0,
            1313.0,
            1317.0,
            1322.0,
            1327.0,
            1332.0,
            1336.0,
            1341.0,
            1346.0,
            1351.0,
            1355.0,
            1360.0,
            1365.0,
            1370.0,
            1375.0,
            1380.0,
            1385.0,
            1390.0,
            1395.0,
            1400.0,
            1405.0,
            1410.0,
            1416.0,
            1421.0,
            1426.0,
            1431.0,
            1437.0,
            1442.0,
            1447.0,
            1453.0,
            1458.0,
            1463.0,
            1469.0,
            1474.0,
            1480.0,
            1485.0,
            1491.0,
            1497.0,
            1502.0,
            1508.0,
            1514.0,
            1519.0,
            1525.0,
            1531.0,
            1537.0,
            1543.0,
            1549.0,
            1555.0,
            1561.0,
            1567.0,
            1573.0,
            1579.0,
            1585.0,
            1591.0,
            1597.0,
            1603.0,
            1610.0,
            1616.0,
            1622.0,
            1629.0,
            1635.0,
            1642.0,
            1648.0,
            1655.0,
            1661.0,
            1668.0,
            1674.0,
            1681.0,
            1688.0,
            1695.0,
            1701.0,
            1708.0,
            1715.0,
            1722.0,
            1729.0,
            1740.0,
            1754.0,
            1768.0,
            1783.0,
            1797.0,
            1812.0,
            1827.0,
            1843.0,
            1858.0,
            1874.0,
            1890.0,
            1906.0,
            1922.0,
            1939.0,
            1955.0,
            1972.0,
            1989.0,
            2007.0,
            2024.0,
            2042.0,
            2060.0,
            2079.0,
            2097.0,
            2116.0,
            2135.0,
            2154.0,
            2174.0,
            2194.0,
            2214.0,
            2234.0,
            2255.0,
            2276.0,
            2297.0,
            2319.0,
            2341.0,
            2363.0,
            2385.0,
            2408.0,
            2431.0,
            2455.0,
            2479.0,
            2503.0,
            2527.0,
            2552.0,
            2577.0,
            2603.0,
            2629.0,
            2656.0,
            2682.0,
            2710.0,
            2737.0,
            2765.0,
            2794.0,
            2823.0,
            2852.0,
            2882.0,
            2912.0,
            2943.0,
            2974.0,
            3006.0,
            3039.0,
            3071.0,
            3122.0,
            3191.0,
            3262.0,
            3336.0,
            3412.0,
            3491.0,
            3573.0,
            3657.0,
            3745.0,
            3836.0,
            3930.0,
            4027.0,
            4129.0,
            4234.0,
            4343.0,
            4457.0,
            4575.0,
            4697.0,
            4825.0,
            4958.0,
            5097.0,
            5242.0,
            5392.0,
            5550.0,
            5714.0,
            5886.0,
            6066.0,
            6254.0,
            6451.0,
            6657.0,
            6858.0,
            7010.0,
            7125.0,
            7244.0,
            7365.0,
            7490.0,
            7618.0,
            7749.0,
            7883.0,
            8021.0,
            8162.0,
            8308.0,
            8457.0,
            8610.0,
            8768.0,
            8930.0,
            9096.0,
            9267.0,
            9443.0,
            9624.0,
            9811.0,
            10000.0,
            10200.0,
            10400.0,
            10610.0,
            10830.0,
            11050.0,
            11280.0,
            11520.0,
            11760.0,
            12010.0,
            12270.0,
            12540.0,
            12820.0,
            13110.0,
            13410.0,
            13710.0,
            14030.0,
            14360.0,
            14700.0,
            15050.0,
            15420.0,
            15800.0,
            16190.0,
            16600.0,
            17020.0,
            17460.0,
            17920.0,
            18400.0,
            18890.0,
            19410.0,
            19940.0,
            20500.0,
            21090.0,
            21700.0,
            22330.0,
            22990.0,
            23690.0,
            24410.0,
            25170.0,
            25970.0,
            26800.0,
            27680.0,
            28470.0,
            29190.0,
            29930.0,
            30700.0,
            31500.0,
            32330.0,
            33200.0,
            34100.0,
            35040.0,
            36010.0,
            37030.0,
            38090.0,
            39200.0,
            40360.0,
            41570.0,
            42830.0,
            44160.0,
            45540.0,
            46990.0,
            48520.0,
            50110.0,
            51790.0,
            53550.0,
            55410.0,
            57360.0,
            59420.0,
            61590.0,
            63880.0,
            66310.0,
            68870.0,
            71590.0,
            74460.0,
            77520.0,
            80770.0,
            84220.0,
            87910.0,
            91840.0,
            96040.0,
            100500.0
          ],
          [
            3460.0,
            3154.0,
            3124.0,
            2861.0,
            2866.0,
            2669.0,
            2639.0,
            2652.0,
            2330.0,
            2290.0,
            2133.0,
            2133.0,
            1976.0,
            1859.0,
            1776.0,
            1715.0,
            1607.0,
            1540.0,
            1458.0,
            1371.0,
            1290.0,
            1218.0,
            1128.0,
            1053.0,
            961.2,
            880.7,
            803.6,
            713.7,
            635.6,
            564.2,
            491.8,
            451.5,
            442.1,
            423.3,
            460.4,
            436.4,
            460.0,
            472.7,
            482.3,
            501.5,
            530.7,
            605.0,
            619.3,
            655.7,
            699.5,
            779.3,
            843.2,
            951.1,
            1083.0,
            1254.0,
            1504.0,
            1859.0,
            2398.0,
            3193.0,
            4381.0,
            5311.0,
            5664.0,
            6046.0,
            6371.0,
            6674.0,
            6840.0,
            6974.0,
            6968.0,
            6844.0,
            6575.0,
            6282.0,
            5839.0,
            5392.0,
            4900.0,
            3804.0,
            2437.0,
            1582.0,
            1064.0,
            737.2,
            528.5,
            397.7,
            299.5,
            236.1,
            182.7,
            147.3,
            120.4,
            97.54,
            83.27,
            71.62,
            66.0,
            63.94,
            57.38,
            47.49,
            38.64,
            33.47,
            33.81,
            33.13,
            23.56,
            21.77,
            21.37,
            16.74,
            15.45,
            15.12,
            14.8,
            14.22,
            13.26,
            13.55,
            12.58,
            14.06,
            15.98,
            12.8,
            12.12,
            15.57,
            17.04,
            16.85,
            19.83,
            20.78,
            26.1,
            27.2,
            34.99,
            45.79,
            64.61,
            115.5,
            209.2,
            352.7,
            457.9,
            414.6,
            282.7,
            166.1,
            98.09,
            64.04,
            48.15,
            41.59,
            37.98,
            34.66,
            32.4,
            32.18,
            31.64,
            25.56,
            31.62,
            30.09,
            34.06,
            31.01,
            35.96,
            38.84,
            35.17,
            44.41,
            44.12,
            57.25,
            66.79,
            71.62,
            96.18,
            123.9,
            169.2,
            238.8,
            348.1,
            529.0,
            702.7,
            746.6,
            621.9,
            397.2,
            241.5,
            152.7,
            105.7,
            77.38,
            56.17,
            44.4,
            34.52,
            29.87,
            26.4,
            20.92,
            22.75,
            17.49,
            13.7,
            14.88,
            12.32,
            12.88,
            10.32,
            9.23,
            10.72,
            8.967,
            7.631,
            9.316,
            6.757,
            6.438,
            5.368,
            4.587,
            8.966,
            8.198,
            5.426,
            9.151,
            7.227,
            8.708,
            5.984,
            6.61,
            3.91,
            9.91,
            8.981,
            6.593,
            4.071,
            8.561,
            8.481,
            6.789,
            9.719,
            8.913,
            8.467,
            5.365,
            7.107,
            7.723,
            11.08,
            9.196,
            12.72,
            9.139,
            14.91,
            15.02,
            17.04,
            19.63,
            19.95,
            28.96,
            32.87,
            44.04,
            53.24,
            73.25,
            101.3,
            129.4,
            144.8,
            149.6,
            140.8,
            121.5,
            93.31,
            66.69,
            51.52,
            35.87,
            26.99,
            20.11,
            16.93,
            13.63,
            15.31,
            10.77,
            18.08,
            11.21,
            9.824,
            11.68,
            11.64,
            11.61,
            13.62,
            11.62,
            12.4,
            14.33,
            14.62,
            13.89,
            14.13,
            14.89,
            18.95,
            18.0,
            23.81,
            23.76,
            27.24,
            30.0,
            34.14,
            42.24,
            51.06,
            64.52,
            86.34,
            114.6,
            150.9,
            182.6,
            213.7,
            248.1,
            256.7,
            237.6,
            192.3,
            154.7,
            114.9,
            89.51,
            68.96,
            63.98,
            56.81,
            63.37,
            63.79,
            62.62,
            61.39,
            63.43,
            54.97,
            56.97,
            62.24,
            68.53,
            80.92,
            95.22,
            121.9,
            165.6,
            220.2,
            343.3,
            504.1,
            668.5,
            773.9,
            735.2,
            604.2,
            430.5,
            287.2,
            185.4,
            134.3,
            97.72,
            70.68,
            55.31,
            42.05,
            32.72,
            28.81,
            26.65,
            23.1,
            26.24,
            28.77,
            27.44,
            36.22,
            42.82,
            62.51,
            80.99,
            99.24,
            113.9,
            121.1,
            107.8,
            94.96,
            75.58,
            53.93,
            43.23,
            33.47,
            31.47,
            24.39,
            20.68,
            18.22,
            15.76,
            15.1,
            15.21,
            13.7,
            12.92,
            13.99,
            12.68,
            12.36,
            10.54,
            11.12,
            6.186,
            11.89,
            10.33,
            7.428,
            10.01,
            6.934,
            6.104,
            11.2,
            11.24,
            17.7,
            21.81,
            23.24,
            30.72,
            40.63,
            49.06,
            46.16,
            41.06,
            33.2,
            25.07,
            17.96,
            14.6,
            9.571,
            11.02,
            10.37,
            11.82,
            6.526,
            7.842,
            7.573,
            7.738,
            7.742,
            8.446,
            12.07,
            12.26,
            13.29,
            11.57,
            15.27,
            16.91,
            19.95,
            24.7,
            31.91,
            47.98,
            70.19,
            114.6,
            189.8,
            272.8,
            373.9,
            412.0,
            445.4,
            426.4,
            364.0,
            302.3,
            209.3,
            128.0,
            83.22,
            52.57,
            36.33,
            23.27,
            16.74,
            19.87,
            40.57,
            39.06,
            55.76,
            34.38,
            23.46,
            20.43,
            19.62,
            10.89,
            14.2,
            10.19,
            13.23,
            14.95,
            9.046,
            11.97,
            15.43,
            15.07,
            15.6,
            16.79,
            21.56,
            26.1,
            38.3,
            53.78,
            80.75,
            130.0,
            163.4,
            177.6,
            160.4,
            125.3,
            108.3,
            109.4,
            109.8,
            147.7,
            203.3,
            320.1,
            445.6,
            455.9,
            329.7,
            179.0,
            95.32,
            51.06,
            34.59,
            28.61,
            24.65,
            21.78,
            18.48,
            16.17,
            11.22,
            10.2,
            14.59,
            10.56,
            12.14,
            12.73,
            11.68,
            10.68,
            12.43,
            12.41,
            11.43,
            13.12,
            15.23,
            14.96,
            17.12,
            15.28,
            15.22,
            15.86,
            20.08,
            23.06,
            33.55,
            40.26,
            40.09,
            30.37,
            20.83,
            19.22,
            18.19,
            19.32,
            28.06,
            33.49,
            48.24,
            69.32,
            116.4,
            224.0,
            541.6,
            1120.0,
            1330.0,
            872.6,
            557.7,
            427.1,
            218.9,
            90.55,
            49.48,
            28.69,
            22.09,
            15.91,
            17.7,
            25.74,
            32.08,
            34.28,
            36.59,
            49.28,
            89.97,
            109.5,
            65.76,
            24.73,
            11.0,
            9.721,
            8.213,
            5.787,
            7.679,
            7.639,
            7.546,
            7.81,
            9.203,
            11.08,
            15.6,
            20.34,
            32.05,
            51.58,
            94.35,
            141.3,
            131.4,
            80.32,
            45.5,
            30.28,
            24.32,
            19.75,
            16.48,
            11.43,
            12.75,
            11.93,
            7.857,
            11.58,
            13.36,
            21.17,
            32.96,
            64.93,
            87.77,
            91.61,
            78.0,
            81.03,
            121.5,
            161.5,
            160.5,
            104.3,
            45.74,
            18.85,
            7.357,
            7.883,
            7.076,
            9.223,
            9.483,
            9.522,
            8.705,
            8.23,
            8.856,
            10.42,
            12.9,
            9.877,
            10.64,
            8.517,
            13.67,
            14.22,
            17.23,
            32.07,
            43.91,
            64.56,
            65.71,
            52.7,
            39.03,
            53.58,
            72.45,
            107.5,
            143.3,
            165.8,
            171.7,
            158.1,
            165.1,
            137.5,
            108.2,
            72.4,
            39.12,
            27.46,
            23.22,
            15.15,
            16.91,
            10.56,
            13.54,
            14.15,
            17.45,
            22.1,
            27.79,
            45.52,
            73.3,
            99.96,
            124.7,
            116.8,
            74.23,
            45.69,
            27.74,
            17.84,
            15.1,
            10.6,
            9.371,
            8.891,
            6.705,
            6.246,
            5.224,
            6.379,
            8.582,
            9.392,
            7.307,
            5.876,
            3.471,
            3.933,
            4.171,
            8.721,
            19.24,
            48.03,
            117.7,
            191.9,
            162.0,
            82.06,
            53.26,
            86.37,
            172.7,
            246.5,
            203.3,
            119.4,
            78.26,
            71.85,
            58.32,
            48.06,
            40.54,
            30.19,
            19.99,
            9.36,
            7.202,
            6.265,
            7.046,
            9.405,
            15.42,
            23.91,
            34.99,
            78.05,
            140.2,
            187.6,
            172.2,
            199.9,
            255.5,
            179.5,
            69.65,
            19.63,
            7.961,
            6.016,
            4.744,
            1.369,
            3.272,
            2.139,
            1.607,
            4.123,
            1.487,
            2.963,
            7.465,
            12.53,
            21.45,
            33.96,
            31.22,
            18.54,
            8.35,
            3.888,
            2.193,
            2.166,
            1.025,
            2.276,
            2.428,
            1.656,
            2.306,
            3.03,
            1.776,
            11.49,
            36.48,
            68.64,
            58.79,
            21.04,
            7.842,
            12.96,
            20.65,
            27.55,
            18.57,
            15.37,
            30.09,
            45.39,
            43.76,
            31.53,
            50.28,
            115.2,
            141.0,
            92.1,
            30.29,
            9.0,
            5.653,
            3.009,
            3.217,
            0.8278,
            1.768,
            3.759,
            2.544,
            4.269,
            12.93,
            37.91,
            61.19,
            64.26,
            120.1,
            257.8,
            283.5,
            104.7,
            18.16,
            7.251,
            13.77,
            27.22,
            66.53,
            124.3,
            140.5,
            92.01,
            49.25,
            24.58,
            16.86,
            14.31,
            15.73,
            32.81,
            78.75,
            123.5,
            124.6,
            76.34,
            31.71,
            47.26,
            105.1,
            139.3,
            93.05,
            48.15,
            35.7,
            37.93,
            18.78,
            12.92,
            14.33,
            8.814,
            5.011,
            6.815,
            6.648,
            9.713,
            8.841,
            14.19,
            10.98,
            4.592,
            3.26,
            3.453,
            2.697,
            3.621,
            3.645,
            4.889,
            4.4,
            5.947,
            6.025,
            8.665,
            9.668,
            11.33,
            13.18,
            23.4,
            54.5,
            123.5,
            190.7,
            169.8,
            97.05,
            40.22,
            21.52,
            16.71,
            19.12,
            17.0,
            7.615,
            3.473,
            2.808,
            3.116,
            1.221,
            0.03859,
            3.374,
            6.515,
            15.47,
            18.96,
            12.51,
            5.654,
            2.823,
            2.81,
            2.208,
            3.452,
            4.121,
            3.525,
            5.698,
            6.641,
            5.064,
            6.895,
            15.29,
            21.0,
            16.6,
            9.339,
            4.909,
            2.786,
            8.959,
            10.04,
            5.956,
            6.736,
            6.959,
            20.06,
            39.73,
            42.54,
            21.15,
            10.08,
            7.084,
            14.36,
            26.58,
            36.77,
            36.86,
            26.53,
            23.35,
            17.16,
            12.77,
            10.7,
            20.31,
            52.86,
            67.05,
            39.86,
            13.73,
            9.743,
            10.89,
            32.57,
            67.67,
            76.44,
            41.06,
            17.4,
            16.81,
            19.32,
            20.61,
            11.02,
            6.881,
            5.907,
            12.95,
            33.45,
            63.55,
            72.77,
            44.96,
            26.74,
            26.31,
            28.32,
            16.54,
            13.74,
            31.48,
            72.69,
            93.55,
            50.58,
            13.13,
            4.743,
            9.073,
            32.15,
            32.91,
            23.84,
            18.69,
            14.25,
            9.664,
            6.161,
            3.034,
            1.777,
            3.07,
            4.102,
            7.89,
            22.32,
            30.22,
            27.87,
            18.5,
            8.885,
            8.582,
            14.84,
            32.72,
            43.18,
            30.38,
            26.3,
            32.1,
            30.04,
            25.33,
            34.94,
            39.54,
            20.56,
            7.726,
            2.688,
            3.624,
            4.528,
            16.89,
            32.41,
            50.65,
            36.75,
            16.96,
            7.913,
            6.195,
            5.78,
            9.764,
            20.73,
            22.92,
            18.19,
            16.55,
            21.97,
            26.5,
            29.85,
            30.94,
            28.94,
            25.66,
            27.51,
            30.18,
            23.71,
            25.66,
            27.53,
            22.91,
            16.3,
            7.51,
            5.72,
            6.779,
            7.954,
            14.71,
            18.21,
            25.1,
            26.39,
            25.5,
            16.11,
            13.37,
            5.829,
            4.204,
            2.902,
            2.441,
            1.662,
            1.769,
            2.004,
            3.891,
            5.504,
            6.141,
            6.41,
            5.071,
            4.928,
            6.559,
            13.06,
            22.7,
            38.69,
            41.64,
            34.96,
            27.96,
            29.1,
            49.91,
            96.0,
            140.6,
            159.2,
            122.4,
            75.9,
            37.37,
            22.9,
            24.35,
            37.81,
            56.88,
            80.29,
            93.06,
            102.8,
            109.6,
            90.91,
            80.19,
            67.01,
            69.04,
            81.08,
            108.8,
            136.3,
            153.7,
            136.2,
            113.7,
            70.82,
            39.63,
            14.97,
            5.426,
            5.227,
            5.297,
            7.823,
            11.91,
            17.17,
            29.34,
            38.11,
            38.64,
            35.74,
            35.43,
            46.81,
            60.56,
            62.32,
            47.67,
            29.21,
            14.65,
            11.21,
            12.16,
            15.45,
            18.51,
            21.31,
            24.59,
            26.75,
            30.89,
            29.25,
            23.63,
            11.27,
            3.729,
            5.71,
            5.486,
            11.67,
            18.2,
            24.45,
            25.37,
            22.58,
            18.75,
            22.92,
            25.26,
            26.27,
            24.21,
            18.03,
            8.416,
            5.365,
            7.857,
            11.39,
            17.37,
            14.84,
            6.842,
            3.09,
            7.145,
            4.847,
            5.736,
            5.146,
            4.594,
            6.637,
            8.676,
            18.17,
            33.59,
            51.95,
            73.43,
            95.52,
            109.1,
            97.13,
            71.98,
            67.4,
            60.56,
            51.76,
            52.88,
            70.38,
            104.1,
            114.8,
            85.11,
            41.36,
            20.59,
            15.78,
            15.04,
            11.49,
            11.56,
            14.06,
            16.82,
            23.69,
            27.98,
            34.84,
            32.24,
            20.2,
            10.6,
            3.126,
            1.944,
            1.653,
            5.029,
            8.738,
            10.7,
            20.24,
            33.65,
            39.34,
            26.04,
            9.593,
            5.302,
            2.052,
            3.776,
            5.468,
            7.258,
            7.368,
            6.194,
            9.826,
            18.8,
            33.34,
            50.97,
            45.55,
            26.35,
            14.77,
            14.14,
            15.83,
            12.54,
            7.442,
            5.171,
            11.74,
            22.43,
            21.11,
            13.98,
            6.234,
            5.239,
            3.313,
            3.449,
            1.44,
            2.531,
            3.205,
            8.004,
            17.87,
            47.44,
            87.37,
            100.3,
            68.93,
            28.94,
            8.023,
            2.848,
            2.494,
            2.87,
            4.899,
            5.483,
            4.783,
            2.921,
            3.298,
            3.476,
            3.145,
            9.824,
            18.67,
            26.34,
            19.23,
            10.31,
            8.043,
            14.95,
            26.84,
            36.0,
            33.02,
            29.66,
            34.86,
            42.61,
            45.6,
            49.38,
            41.16,
            25.28,
            12.95,
            8.171,
            6.849,
            8.859,
            18.05,
            28.01,
            24.06,
            19.0,
            23.75,
            40.23,
            63.69,
            60.29,
            40.22,
            26.22,
            34.51,
            34.97,
            21.9,
            8.983,
            8.359,
            13.52,
            20.64,
            24.16,
            15.81,
            9.499,
            5.849,
            5.578,
            7.058,
            15.1,
            28.59,
            27.4,
            17.99,
            9.468,
            6.387,
            10.24,
            12.44,
            26.99,
            37.96,
            36.6,
            23.67,
            18.51,
            24.95,
            24.24,
            14.62,
            9.036,
            8.85,
            12.34,
            21.61,
            24.4,
            18.73,
            12.56,
            15.52,
            22.25,
            33.66,
            34.77,
            40.23,
            38.7,
            20.13,
            13.36,
            12.63,
            12.29,
            9.051,
            9.825,
            15.93,
            28.94,
            30.14,
            27.86,
            15.05,
            9.736,
            14.6,
            19.97,
            18.87,
            12.98,
            26.21,
            73.47,
            135.7,
            146.3,
            94.25,
            35.43,
            16.62,
            12.03,
            10.54,
            11.86,
            18.42,
            24.83,
            36.16,
            26.57,
            10.83,
            11.97,
            14.52,
            12.06,
            6.359,
            7.485,
            4.904,
            5.861,
            9.031,
            15.1,
            21.64,
            22.76,
            17.25,
            15.53,
            8.849,
            8.163,
            5.053,
            3.441,
            2.149,
            4.29,
            8.068,
            14.82,
            17.93,
            19.78,
            13.21,
            12.92,
            10.25,
            9.021,
            14.49,
            30.75,
            34.36,
            18.83,
            9.645,
            10.72,
            11.26,
            13.75,
            13.77,
            34.97,
            63.82,
            57.77,
            61.68,
            71.21,
            51.94,
            37.64,
            56.03,
            52.6,
            23.77,
            16.76,
            21.09,
            45.5,
            68.44,
            56.08,
            31.23,
            26.94,
            25.66,
            31.69,
            30.04,
            26.08,
            14.63,
            8.666,
            4.213,
            6.165,
            7.798,
            4.27,
            2.073,
            1.824,
            3.982,
            9.011,
            19.06,
            16.73,
            7.608,
            4.718,
            3.452,
            6.052,
            12.14,
            14.65,
            10.61,
            10.19,
            13.22,
            18.75,
            23.28,
            23.26,
            13.34,
            3.938,
            4.233,
            6.12,
            13.33,
            22.75,
            20.38,
            17.64,
            18.83,
            20.58,
            30.15,
            33.61,
            33.73,
            27.89,
            13.19,
            10.96,
            14.79,
            31.77,
            41.11,
            45.72,
            45.91,
            22.92,
            18.61,
            29.6,
            39.32,
            44.33,
            34.9,
            12.07,
            8.608,
            17.54,
            29.8,
            22.8,
            14.99,
            13.18,
            6.64,
            3.568,
            2.831,
            3.165,
            1.586,
            4.945,
            14.57,
            22.6,
            18.79,
            6.895,
            2.65,
            4.253,
            16.32,
            33.2,
            32.8,
            18.8,
            15.08,
            21.26,
            27.31,
            35.32,
            44.98,
            36.98,
            15.41,
            12.21,
            14.83,
            13.85,
            16.46,
            24.42,
            23.64,
            9.141,
            3.847,
            7.306,
            17.95,
            28.8,
            37.56,
            30.09,
            13.22,
            6.988,
            8.543,
            8.421,
            7.802,
            11.69,
            6.302,
            7.695,
            8.661,
            13.14,
            12.68,
            24.31,
            27.82,
            22.04,
            22.51,
            13.39,
            7.583,
            4.923,
            10.82,
            20.03,
            20.92,
            22.89,
            24.45,
            18.32,
            18.2,
            23.05,
            22.26,
            23.69,
            20.44,
            19.88,
            15.47,
            16.52,
            14.98,
            17.08,
            11.68,
            11.29,
            8.597,
            5.433,
            6.382,
            5.214,
            6.566,
            8.896,
            8.15,
            7.783,
            11.11,
            12.1,
            11.31,
            10.84,
            8.303,
            12.42,
            13.99,
            21.41,
            24.09,
            23.64,
            20.59,
            20.57,
            20.89,
            23.94,
            21.23,
            17.89,
            14.41,
            11.23,
            15.22,
            21.77,
            22.71,
            27.75,
            25.12,
            26.61,
            25.91,
            21.08,
            15.81,
            13.29,
            13.33,
            11.58,
            14.48,
            13.55,
            14.91,
            12.24,
            16.57,
            10.48,
            9.041,
            8.347,
            6.482,
            10.43,
            13.05,
            11.64,
            19.71,
            15.25,
            14.09,
            8.904,
            7.19,
            6.322,
            9.451,
            16.04,
            15.76,
            19.61,
            21.73,
            20.41,
            18.2,
            16.4,
            12.88,
            11.93,
            9.656,
            10.65,
            10.07,
            13.44,
            13.12,
            12.21,
            8.906,
            10.73,
            12.44,
            18.44,
            27.15,
            30.63,
            26.74,
            19.99,
            18.68,
            19.78,
            20.09,
            17.9,
            17.2,
            12.03,
            9.732,
            5.778,
            6.49,
            6.651,
            6.704,
            5.473,
            5.345,
            4.69,
            5.204,
            5.562,
            5.751,
            7.117,
            6.235,
            9.249,
            13.7,
            18.05,
            19.53,
            18.04,
            21.28,
            15.43,
            9.428,
            7.924,
            6.588,
            7.933,
            7.848,
            7.497,
            8.979,
            9.395,
            8.641,
            7.711,
            10.55,
            11.89,
            16.34,
            19.46,
            16.01,
            14.52,
            12.45,
            11.41,
            9.853,
            10.0,
            10.83,
            10.99,
            11.83,
            11.85,
            13.42,
            11.93,
            13.61,
            15.0,
            10.65,
            10.21,
            8.386,
            6.282,
            4.449,
            5.85,
            8.638,
            14.02,
            16.49,
            25.57,
            31.79,
            46.35,
            47.69,
            38.42,
            31.42,
            23.02,
            17.55,
            15.85,
            16.04,
            16.12,
            13.52,
            12.09,
            13.33,
            17.34,
            16.88,
            12.62,
            10.18,
            7.603,
            4.756,
            7.024,
            9.314,
            14.62,
            16.06,
            14.1,
            14.88,
            17.46,
            18.92,
            15.79,
            9.655,
            6.872,
            4.509,
            4.367,
            5.993,
            7.67,
            12.7,
            17.89,
            24.22,
            31.32,
            33.43,
            32.97,
            29.57,
            27.52,
            21.77,
            12.8,
            9.886,
            11.08,
            12.31,
            12.7,
            12.0,
            9.414,
            9.023,
            12.61,
            15.74,
            17.44,
            17.16,
            18.57,
            18.68,
            13.11,
            9.679,
            10.27,
            7.015,
            11.3,
            11.5,
            9.676,
            7.592,
            6.352,
            2.141,
            2.519,
            3.69,
            4.025,
            4.574,
            4.468,
            4.895,
            6.72,
            8.779,
            13.19,
            18.97,
            19.01,
            15.47,
            12.88,
            8.368,
            4.172,
            4.432,
            3.76,
            3.493,
            3.917,
            5.926,
            10.28,
            14.68,
            15.13,
            19.2,
            18.72,
            15.32,
            13.16,
            13.12,
            13.19,
            13.86,
            12.71,
            11.28,
            7.024,
            6.453,
            6.075,
            7.653,
            12.68,
            18.03,
            21.11,
            21.85,
            20.29,
            15.63,
            14.17,
            11.79,
            12.62,
            11.0,
            10.81,
            12.15,
            14.76,
            19.84,
            24.0,
            19.64,
            13.32,
            8.604,
            7.538,
            7.64,
            7.884,
            9.027,
            9.228,
            7.97,
            9.437,
            9.104,
            9.69,
            10.66,
            10.81,
            10.1,
            9.51,
            12.17,
            13.32,
            16.27,
            16.86,
            15.95,
            17.45,
            20.96,
            18.93,
            18.43,
            19.91,
            22.0,
            16.57,
            12.66,
            12.27,
            10.93,
            10.88,
            7.922,
            8.533,
            5.515,
            6.324,
            8.478,
            11.8,
            13.74,
            16.46,
            15.43,
            16.22,
            11.97,
            6.751,
            4.453,
            2.216,
            3.992,
            4.363,
            6.448,
            8.247,
            9.239,
            10.71,
            11.61,
            10.2,
            8.531,
            7.392,
            9.593,
            10.64,
            11.45,
            15.88,
            15.41,
            16.53,
            18.77,
            19.56,
            20.31,
            17.15,
            20.07,
            21.48,
            14.58,
            10.06,
            9.114,
            11.44,
            10.92,
            11.29,
            10.87,
            14.19,
            16.02,
            10.79,
            7.496,
            8.401,
            12.54,
            12.69,
            10.2,
            9.607,
            16.75,
            21.01,
            22.23,
            16.3,
            14.56,
            14.01,
            13.13,
            17.39,
            18.3,
            14.09,
            8.707,
            9.449,
            10.93,
            8.001,
            6.98,
            7.615,
            8.319,
            10.53,
            9.544,
            9.772,
            8.702,
            8.109,
            7.114,
            6.986,
            6.426,
            5.321,
            4.19,
            3.873,
            3.225,
            5.616,
            7.43,
            10.7,
            12.09,
            8.952,
            6.046,
            7.167,
            12.54,
            16.07,
            18.96,
            24.56,
            20.83,
            10.77,
            8.676,
            8.055,
            7.666,
            7.559,
            7.478,
            6.338,
            5.363,
            6.809,
            12.55,
            16.41,
            14.46,
            11.97,
            11.61,
            11.02,
            10.22,
            7.539,
            8.501,
            12.31,
            15.9,
            17.12,
            13.05,
            7.903,
            5.391,
            8.65,
            9.487,
            8.941,
            8.236,
            4.776,
            6.758,
            7.574,
            7.231,
            6.245,
            7.123,
            10.53,
            11.08,
            11.56,
            14.11,
            14.89,
            17.1,
            17.48,
            12.97,
            8.423,
            6.807,
            11.41,
            15.3,
            18.43,
            17.23,
            15.21,
            13.89,
            15.62,
            17.18,
            13.92,
            10.83,
            8.886,
            7.905,
            4.633,
            5.255,
            7.521,
            10.56,
            12.49,
            12.1,
            9.002,
            9.221,
            13.4,
            21.19,
            26.03,
            20.73,
            18.64,
            15.96,
            8.932,
            6.0,
            7.987,
            11.23,
            10.56,
            7.459,
            4.147,
            3.703,
            5.47,
            7.444,
            7.496,
            6.387,
            9.94,
            10.57,
            12.18,
            10.44,
            8.663,
            9.839,
            13.44,
            15.18,
            14.15,
            11.53,
            10.03,
            11.44,
            12.4,
            10.68,
            7.8,
            6.531,
            5.995,
            6.672,
            6.695,
            7.012,
            7.401,
            8.131,
            7.38,
            6.808,
            9.383,
            10.78,
            15.03,
            11.59,
            7.333,
            6.463,
            6.699,
            11.02,
            13.98,
            14.54,
            9.534,
            5.623,
            3.34,
            3.428,
            4.343,
            6.968,
            8.371,
            8.628,
            6.073,
            5.426,
            4.644,
            2.47,
            2.35,
            3.84,
            6.452,
            6.51,
            7.941,
            8.57,
            6.985,
            6.181,
            5.938,
            6.373,
            8.976,
            11.2,
            14.12,
            11.3,
            7.844,
            6.348,
            6.471,
            6.205,
            8.152,
            8.647,
            8.153,
            10.6,
            10.71,
            7.911,
            6.822,
            8.217,
            11.44,
            13.83,
            10.64,
            8.175,
            8.472,
            9.109,
            9.391,
            11.19,
            11.21,
            9.303,
            6.243,
            5.045,
            5.296,
            7.054,
            6.224,
            5.093,
            4.014,
            3.75,
            5.471,
            6.286,
            6.615,
            10.47,
            7.609,
            5.622,
            5.43,
            6.583,
            7.069,
            5.73,
            5.136,
            5.398,
            3.819,
            6.953,
            7.245,
            8.804,
            8.428,
            7.022,
            6.79,
            7.092,
            7.919,
            9.247,
            8.032,
            6.496,
            5.176,
            9.494,
            9.502,
            5.965,
            5.394,
            8.568,
            7.05,
            6.656,
            5.795,
            6.218,
            9.106,
            8.907,
            7.859,
            7.106,
            7.599,
            5.955,
            6.736,
            7.191,
            7.022,
            5.646,
            5.602,
            6.987,
            8.742,
            10.69,
            7.57,
            6.694,
            6.923,
            6.917,
            7.656,
            5.107,
            5.249,
            6.486,
            6.949,
            4.719,
            4.619,
            6.393,
            4.903,
            4.758,
            6.013,
            6.821,
            5.997,
            5.491,
            4.968,
            6.077,
            5.938,
            4.886,
            5.383,
            7.682,
            6.94,
            7.1,
            4.608,
            6.079,
            6.939,
            6.594,
            7.817,
            5.619,
            3.63,
            5.249,
            5.804,
            5.488,
            6.142,
            4.85,
            5.067,
            3.574,
            4.836,
            5.713,
            4.986,
            5.126,
            4.728,
            4.296,
            4.442,
            4.58,
            4.798,
            4.418,
            4.582,
            5.041,
            4.89,
            3.865,
            3.848,
            4.247,
            4.044,
            4.23,
            4.197,
            3.509,
            3.499,
            3.629,
            4.076,
            3.558,
            3.748,
            3.76,
            3.887,
            3.291,
            2.922,
            3.947,
            4.077,
            3.942,
            3.982,
            3.186,
            2.876,
            3.136,
            3.575,
            3.278,
            3.507,
            3.758,
            3.253,
            3.539,
            3.36,
            3.387,
            3.435,
            3.488,
            3.434,
            3.278,
            3.146,
            3.544,
            3.314,
            3.143,
            3.156,
            3.089,
            3.048,
            3.534,
            3.312,
            3.288,
            3.063,
            2.935,
            2.763,
            3.158,
            3.044,
            2.889,
            2.827,
            2.833,
            2.98,
            2.702,
            2.544,
            2.778,
            2.828,
            2.694,
            2.601,
            2.533,
            2.684,
            2.714,
            2.775,
            2.82,
            2.776,
            2.643,
            2.653,
            2.479,
            2.463,
            2.498,
            2.515,
            2.621,
            2.33,
            2.479,
            2.562,
            2.514,
            2.686,
            2.616,
            2.718,
            2.444,
            2.516,
            2.564,
            2.497,
            2.441,
            2.117,
            2.232,
            2.247,
            2.237,
            2.331,
            2.295,
            2.345,
            2.156,
            2.335,
            2.31,
            2.255,
            2.188,
            2.151,
            2.208,
            2.295,
            2.266,
            2.372,
            2.199,
            2.163,
            2.123,
            2.163,
            2.144,
            2.106,
            2.008,
            2.087
          ],
          [
            151.0,
            139.8,
            135.6,
            122.4,
            119.4,
            110.3,
            107.5,
            105.8,
            92.64,
            89.48,
            82.77,
            81.61,
            76.97,
            69.48,
            65.56,
            63.28,
            59.43,
            56.87,
            53.69,
            50.37,
            47.31,
            44.57,
            41.19,
            38.35,
            34.99,
            32.0,
            29.17,
            25.92,
            23.06,
            20.51,
            17.9,
            16.46,
            17.8,
            17.09,
            18.34,
            17.45,
            18.24,
            18.65,
            18.95,
            19.6,
            20.59,
            22.5,
            22.39,
            23.61,
            25.11,
            27.86,
            30.11,
            33.86,
            38.49,
            44.48,
            53.23,
            65.66,
            84.55,
            112.4,
            153.9,
            187.4,
            199.9,
            213.4,
            225.0,
            235.8,
            242.0,
            247.0,
            247.2,
            243.2,
            234.2,
            224.3,
            209.1,
            193.5,
            176.4,
            136.9,
            88.06,
            57.26,
            38.56,
            26.78,
            19.28,
            14.53,
            11.02,
            8.718,
            6.802,
            5.514,
            4.534,
            3.705,
            3.177,
            2.744,
            2.581,
            2.508,
            2.271,
            1.919,
            1.596,
            1.4,
            1.395,
            1.364,
            1.027,
            0.9479,
            0.9242,
            0.7578,
            0.7017,
            0.6824,
            0.6643,
            0.6376,
            0.6002,
            0.6016,
            0.5639,
            0.8978,
            0.9777,
            0.8453,
            0.82,
            0.9614,
            1.017,
            1.009,
            1.124,
            1.158,
            1.361,
            1.404,
            1.69,
            2.081,
            2.747,
            4.513,
            7.744,
            12.69,
            16.34,
            14.95,
            10.52,
            6.579,
            4.267,
            3.084,
            2.488,
            2.165,
            1.934,
            1.736,
            1.612,
            1.585,
            1.553,
            1.323,
            1.542,
            1.482,
            1.624,
            1.511,
            1.689,
            1.792,
            1.659,
            1.988,
            1.979,
            2.439,
            2.776,
            2.946,
            3.801,
            4.765,
            6.334,
            8.74,
            12.52,
            18.76,
            24.8,
            26.46,
            22.37,
            14.8,
            9.543,
            6.505,
            4.811,
            3.664,
            2.725,
            2.147,
            1.701,
            1.483,
            1.329,
            1.106,
            1.165,
            0.9585,
            0.8065,
            0.849,
            0.7418,
            0.7599,
            0.6546,
            0.6041,
            0.6657,
            0.5894,
            0.5284,
            0.6009,
            0.4876,
            0.4706,
            0.4181,
            0.3787,
            0.7449,
            0.8618,
            0.6743,
            0.9186,
            0.8001,
            0.8905,
            0.713,
            0.7589,
            0.5513,
            0.9654,
            0.9046,
            0.7575,
            0.7102,
            0.8788,
            0.8738,
            0.7637,
            0.9447,
            0.8953,
            0.8666,
            0.6656,
            0.7854,
            0.8211,
            1.019,
            0.9073,
            1.1,
            0.9003,
            1.213,
            1.214,
            1.316,
            1.428,
            1.438,
            1.843,
            2.005,
            2.43,
            2.78,
            3.535,
            4.549,
            5.555,
            6.11,
            6.277,
            5.988,
            5.304,
            4.298,
            3.315,
            2.75,
            2.151,
            1.767,
            1.461,
            1.317,
            1.15,
            1.233,
            0.9918,
            1.359,
            1.017,
            0.9366,
            1.033,
            1.024,
            1.018,
            1.12,
            1.01,
            1.052,
            1.15,
            1.16,
            1.119,
            1.135,
            1.169,
            1.361,
            1.313,
            1.571,
            1.567,
            1.709,
            1.832,
            1.992,
            2.31,
            2.65,
            3.149,
            3.941,
            4.957,
            6.262,
            7.375,
            8.463,
            9.678,
            9.997,
            9.35,
            7.779,
            6.478,
            5.068,
            4.169,
            3.415,
            3.221,
            2.962,
            3.194,
            3.218,
            3.161,
            3.126,
            3.188,
            2.868,
            2.939,
            3.126,
            3.365,
            3.828,
            4.387,
            5.446,
            7.221,
            9.675,
            15.38,
            23.45,
            31.93,
            36.84,
            33.89,
            26.63,
            18.42,
            12.33,
            8.288,
            6.279,
            4.867,
            3.843,
            3.25,
            2.738,
            2.366,
            2.186,
            2.062,
            1.866,
            1.888,
            1.877,
            1.758,
            2.069,
            2.303,
            3.029,
            3.692,
            4.341,
            4.853,
            5.112,
            4.645,
            4.191,
            3.508,
            2.692,
            2.297,
            1.913,
            1.839,
            1.546,
            1.388,
            1.279,
            1.168,
            1.134,
            1.132,
            1.05,
            1.011,
            1.053,
            0.9947,
            0.979,
            0.8835,
            0.9032,
            0.6545,
            0.9456,
            0.8672,
            0.7107,
            0.8532,
            0.6844,
            0.6302,
            0.9064,
            0.9077,
            1.209,
            1.383,
            1.443,
            1.736,
            2.12,
            2.439,
            2.325,
            2.132,
            1.838,
            1.516,
            1.212,
            1.061,
            0.8161,
            0.8896,
            0.8565,
            0.9318,
            0.6471,
            0.7209,
            0.7048,
            0.7175,
            0.7128,
            0.7527,
            0.9392,
            0.9468,
            0.9996,
            0.9154,
            1.086,
            1.163,
            1.294,
            1.495,
            1.79,
            2.414,
            3.258,
            4.902,
            7.669,
            10.74,
            14.54,
            16.1,
            17.58,
            17.17,
            15.13,
            13.11,
            9.748,
            6.689,
            5.046,
            3.864,
            3.301,
            2.819,
            2.722,
            3.495,
            6.846,
            8.473,
            12.45,
            9.199,
            4.145,
            2.97,
            2.338,
            1.354,
            1.397,
            1.04,
            1.159,
            1.2,
            0.8438,
            0.9777,
            1.132,
            1.097,
            1.106,
            1.147,
            1.347,
            1.526,
            2.003,
            2.572,
            3.557,
            5.316,
            6.501,
            7.002,
            6.41,
            5.163,
            4.546,
            4.593,
            4.6,
            5.946,
            7.908,
            12.0,
            16.4,
            16.78,
            12.43,
            7.193,
            4.245,
            2.657,
            2.034,
            1.798,
            1.634,
            1.505,
            1.349,
            1.208,
            0.9354,
            0.8293,
            0.983,
            0.7909,
            0.8564,
            0.8839,
            0.8376,
            0.7964,
            0.8779,
            0.8651,
            0.8164,
            0.8907,
            0.9804,
            0.9734,
            1.055,
            0.9807,
            0.9741,
            1.002,
            1.173,
            1.289,
            1.689,
            1.941,
            1.928,
            1.572,
            1.2,
            1.133,
            1.094,
            1.138,
            1.476,
            1.674,
            2.214,
            2.97,
            4.626,
            8.369,
            19.38,
            39.4,
            46.81,
            31.24,
            20.48,
            16.06,
            8.947,
            4.622,
            3.255,
            2.564,
            2.297,
            2.055,
            1.776,
            1.708,
            1.757,
            1.75,
            1.791,
            2.231,
            3.662,
            4.351,
            2.828,
            1.34,
            0.7807,
            0.7224,
            0.6465,
            0.5233,
            0.6102,
            0.6047,
            0.5993,
            0.6016,
            0.661,
            0.741,
            0.9323,
            1.115,
            1.559,
            2.261,
            3.767,
            5.412,
            5.079,
            3.319,
            2.174,
            1.846,
            1.584,
            1.396,
            1.245,
            0.9933,
            1.053,
            1.025,
            0.7976,
            1.011,
            1.124,
            1.557,
            2.157,
            3.565,
            4.436,
            4.47,
            3.815,
            3.847,
            5.262,
            6.657,
            6.613,
            4.61,
            2.444,
            1.346,
            0.7565,
            0.787,
            0.7355,
            0.8531,
            0.8616,
            0.8699,
            0.824,
            0.7935,
            0.8267,
            0.9039,
            1.031,
            0.87,
            0.9085,
            0.7912,
            1.065,
            1.076,
            1.21,
            1.84,
            2.289,
            3.069,
            3.112,
            2.63,
            2.111,
            2.669,
            3.359,
            4.635,
            5.915,
            6.719,
            6.927,
            6.459,
            6.728,
            5.74,
            4.708,
            3.412,
            2.178,
            1.698,
            1.519,
            1.161,
            1.234,
            0.924,
            1.064,
            1.09,
            1.241,
            1.434,
            1.661,
            2.354,
            3.375,
            4.333,
            5.217,
            4.943,
            3.404,
            2.344,
            1.646,
            1.225,
            1.096,
            0.8806,
            0.8163,
            0.7882,
            0.6649,
            0.6372,
            0.5685,
            0.6411,
            0.7667,
            0.8065,
            0.6943,
            0.6023,
            0.439,
            0.4725,
            0.4906,
            0.7623,
            1.252,
            2.381,
            4.887,
            7.535,
            6.487,
            3.654,
            2.607,
            3.807,
            6.878,
            9.474,
            7.971,
            5.03,
            3.57,
            3.33,
            2.839,
            2.455,
            2.167,
            1.763,
            1.35,
            0.8693,
            0.7343,
            0.6661,
            0.7011,
            0.8152,
            1.09,
            1.439,
            1.87,
            3.447,
            5.676,
            7.344,
            6.823,
            7.797,
            9.779,
            7.117,
            3.22,
            1.318,
            0.7851,
            0.6782,
            0.5983,
            0.4609,
            0.5005,
            0.4325,
            0.404,
            0.5273,
            0.342,
            0.4136,
            0.6765,
            0.9225,
            1.296,
            1.794,
            1.687,
            1.174,
            0.7027,
            0.4457,
            0.3169,
            0.3158,
            0.1979,
            0.3241,
            0.3514,
            0.4152,
            0.3241,
            0.3823,
            0.2833,
            0.852,
            1.873,
            3.062,
            2.731,
            1.301,
            0.6852,
            0.9207,
            1.236,
            1.518,
            1.16,
            1.021,
            1.619,
            2.194,
            2.127,
            1.675,
            2.379,
            4.712,
            5.614,
            3.894,
            1.649,
            0.7401,
            0.5618,
            0.417,
            0.4063,
            0.2246,
            0.2928,
            0.4316,
            0.3466,
            0.4578,
            0.9034,
            1.891,
            2.738,
            2.844,
            4.831,
            9.68,
            10.62,
            4.369,
            1.176,
            0.688,
            0.9766,
            1.507,
            2.975,
            5.042,
            5.613,
            3.906,
            2.374,
            1.446,
            1.119,
            0.9815,
            1.023,
            1.695,
            3.364,
            4.959,
            5.01,
            3.31,
            1.67,
            2.239,
            4.306,
            5.509,
            3.885,
            2.285,
            1.818,
            1.902,
            1.167,
            0.9085,
            0.9661,
            0.7057,
            0.5014,
            0.5936,
            0.5837,
            0.7258,
            0.6774,
            0.9146,
            0.7723,
            0.4472,
            0.3656,
            0.3799,
            0.326,
            0.4683,
            0.4779,
            0.5689,
            0.5407,
            0.6422,
            0.6363,
            0.7786,
            0.8384,
            0.9122,
            0.9972,
            1.438,
            2.656,
            5.186,
            7.582,
            6.866,
            4.258,
            2.222,
            1.561,
            1.387,
            1.464,
            1.255,
            0.7333,
            0.4589,
            0.4014,
            0.4241,
            0.2734,
            0.1982,
            0.4457,
            0.6481,
            1.092,
            1.246,
            0.947,
            0.5837,
            0.385,
            0.388,
            0.3357,
            0.4367,
            0.4864,
            0.4439,
            0.5877,
            0.6425,
            0.5489,
            0.6527,
            1.074,
            1.308,
            1.122,
            0.7777,
            0.5322,
            0.3786,
            0.7632,
            0.813,
            0.5999,
            0.6403,
            0.651,
            1.262,
            2.043,
            2.165,
            1.312,
            0.8121,
            0.6544,
            1.011,
            1.524,
            1.923,
            1.923,
            1.52,
            1.399,
            1.134,
            0.9345,
            0.8315,
            1.254,
            2.52,
            3.039,
            2.041,
            0.9799,
            0.7853,
            0.8395,
            1.752,
            3.055,
            3.378,
            2.084,
            1.14,
            1.106,
            1.216,
            1.278,
            0.846,
            0.6294,
            0.5769,
            0.9633,
            1.929,
            3.255,
            3.503,
            2.302,
            1.54,
            1.518,
            1.598,
            1.102,
            0.9682,
            1.696,
            3.23,
            4.003,
            2.455,
            1.005,
            0.6274,
            1.211,
            2.985,
            2.482,
            1.616,
            1.248,
            1.004,
            0.7766,
            0.5891,
            0.4017,
            0.3063,
            0.4022,
            0.4525,
            0.6649,
            1.31,
            1.614,
            1.515,
            1.146,
            0.7116,
            0.6985,
            0.9835,
            1.696,
            2.095,
            1.608,
            1.448,
            1.676,
            1.596,
            1.407,
            1.809,
            2.028,
            1.285,
            0.6707,
            0.3464,
            0.4103,
            0.4712,
            1.055,
            1.673,
            2.355,
            1.843,
            1.069,
            0.6545,
            0.5542,
            0.5392,
            0.7348,
            1.2,
            1.286,
            1.218,
            1.323,
            1.597,
            1.82,
            1.936,
            1.987,
            1.896,
            1.784,
            1.874,
            2.008,
            1.744,
            1.822,
            1.896,
            1.652,
            1.342,
            0.82,
            0.7003,
            0.7752,
            0.8457,
            1.232,
            1.395,
            1.705,
            1.777,
            1.741,
            1.305,
            1.163,
            0.6932,
            0.5726,
            0.4596,
            0.4187,
            0.327,
            0.3392,
            0.3691,
            0.5516,
            0.6721,
            0.7226,
            0.7401,
            0.6584,
            0.6392,
            0.7651,
            1.157,
            1.608,
            2.289,
            2.393,
            2.131,
            1.819,
            1.877,
            2.732,
            4.534,
            6.217,
            6.914,
            5.533,
            3.768,
            2.236,
            1.615,
            1.688,
            2.321,
            3.201,
            4.418,
            5.528,
            6.563,
            6.716,
            5.191,
            4.306,
            3.577,
            3.559,
            3.987,
            5.026,
            6.079,
            6.735,
            6.081,
            5.243,
            3.591,
            2.342,
            1.259,
            0.6921,
            0.6751,
            0.6713,
            0.8305,
            1.073,
            1.383,
            1.99,
            2.406,
            2.4,
            2.218,
            2.171,
            2.598,
            3.152,
            3.234,
            2.625,
            1.858,
            1.199,
            0.9986,
            1.066,
            1.227,
            1.38,
            1.505,
            1.643,
            1.73,
            1.925,
            1.831,
            1.608,
            1.001,
            0.5093,
            0.658,
            0.6435,
            1.012,
            1.34,
            1.63,
            1.663,
            1.544,
            1.365,
            1.551,
            1.661,
            1.718,
            1.61,
            1.34,
            0.8306,
            0.6222,
            0.7992,
            1.004,
            1.299,
            1.186,
            0.7465,
            0.4659,
            0.772,
            0.5943,
            0.6568,
            0.6161,
            0.5763,
            0.7232,
            0.8408,
            1.316,
            1.994,
            2.712,
            3.567,
            4.388,
            4.918,
            4.484,
            3.545,
            3.345,
            3.082,
            2.734,
            2.782,
            3.437,
            4.735,
            5.143,
            4.037,
            2.321,
            1.439,
            1.2,
            1.174,
            0.9873,
            0.9948,
            1.124,
            1.259,
            1.569,
            1.753,
            2.045,
            1.931,
            1.393,
            0.924,
            0.4552,
            0.3442,
            0.3107,
            0.5879,
            0.8181,
            0.9264,
            1.386,
            1.949,
            2.197,
            1.656,
            0.8771,
            0.6089,
            0.3416,
            0.4913,
            0.6188,
            0.7342,
            0.7381,
            0.6643,
            0.8823,
            1.318,
            1.953,
            2.666,
            2.442,
            1.648,
            1.119,
            1.093,
            1.181,
            1.016,
            0.729,
            0.5946,
            1.006,
            1.546,
            1.49,
            1.195,
            0.75,
            0.6592,
            0.4741,
            0.4696,
            0.2725,
            0.3888,
            0.4433,
            0.7735,
            1.253,
            2.48,
            4.008,
            4.478,
            3.324,
            1.737,
            0.7651,
            0.4084,
            0.3738,
            0.4099,
            0.5627,
            0.6001,
            0.554,
            0.4145,
            0.4471,
            0.4598,
            0.433,
            0.8619,
            1.29,
            1.628,
            1.307,
            0.8751,
            0.7552,
            1.106,
            1.634,
            2.007,
            1.881,
            1.743,
            1.946,
            2.263,
            2.38,
            2.529,
            2.211,
            1.571,
            1.004,
            0.7557,
            0.6714,
            0.7898,
            1.245,
            1.706,
            1.546,
            1.304,
            1.486,
            2.145,
            3.057,
            2.917,
            2.151,
            1.585,
            1.933,
            1.938,
            1.407,
            0.8021,
            0.7785,
            1.079,
            1.438,
            1.582,
            1.163,
            0.8302,
            0.6118,
            0.5829,
            0.6817,
            1.079,
            1.666,
            1.619,
            1.213,
            0.8027,
            0.6369,
            0.841,
            0.9571,
            1.599,
            2.029,
            1.98,
            1.451,
            1.231,
            1.511,
            1.479,
            1.055,
            0.7699,
            0.7671,
            0.9488,
            1.365,
            1.478,
            1.244,
            0.9658,
            1.108,
            1.388,
            1.861,
            1.887,
            2.117,
            2.068,
            1.284,
            0.9923,
            0.9714,
            0.9658,
            0.8039,
            0.8243,
            1.106,
            1.641,
            1.696,
            1.613,
            1.061,
            0.8008,
            1.037,
            1.271,
            1.218,
            0.9554,
            1.539,
            3.386,
            5.721,
            6.181,
            4.264,
            2.029,
            1.189,
            0.9442,
            0.8651,
            0.9103,
            1.213,
            1.488,
            1.958,
            1.582,
            0.8795,
            0.9609,
            1.096,
            0.9364,
            0.6172,
            0.6765,
            0.5249,
            0.5816,
            0.7643,
            1.049,
            1.327,
            1.374,
            1.135,
            1.06,
            0.7375,
            0.7007,
            0.5207,
            0.4183,
            0.3182,
            0.4791,
            0.6974,
            1.017,
            1.152,
            1.241,
            0.9446,
            0.9378,
            0.8021,
            0.7317,
            0.9916,
            1.668,
            1.82,
            1.192,
            0.7648,
            0.8215,
            0.8425,
            0.9663,
            0.9664,
            1.861,
            2.992,
            2.754,
            2.869,
            3.214,
            2.498,
            1.941,
            2.658,
            2.529,
            1.4,
            1.119,
            1.301,
            2.267,
            3.125,
            2.655,
            1.702,
            1.533,
            1.479,
            1.736,
            1.662,
            1.49,
            1.005,
            0.7172,
            0.4616,
            0.578,
            0.6658,
            0.4632,
            0.3049,
            0.2794,
            0.4355,
            0.7244,
            1.184,
            1.075,
            0.648,
            0.4804,
            0.4036,
            0.5583,
            0.8567,
            0.9805,
            0.7902,
            0.7763,
            0.9173,
            1.148,
            1.325,
            1.334,
            0.914,
            0.4258,
            0.4481,
            0.5591,
            0.9159,
            1.311,
            1.217,
            1.103,
            1.17,
            1.241,
            1.639,
            1.766,
            1.777,
            1.538,
            0.9222,
            0.8225,
            0.9985,
            1.71,
            2.076,
            2.27,
            2.301,
            1.416,
            1.247,
            1.712,
            2.129,
            2.365,
            2.047,
            1.159,
            1.026,
            1.4,
            1.906,
            1.65,
            1.339,
            1.266,
            0.9542,
            0.769,
            0.6489,
            0.5738,
            0.449,
            0.5796,
            1.018,
            1.34,
            1.169,
            0.6101,
            0.3509,
            0.4464,
            1.043,
            1.727,
            1.714,
            1.141,
            0.9677,
            1.224,
            1.474,
            1.788,
            2.147,
            1.861,
            0.9811,
            0.8481,
            0.9606,
            0.9071,
            1.012,
            1.353,
            1.311,
            0.6938,
            0.4047,
            0.5942,
            1.067,
            1.507,
            1.848,
            1.573,
            0.8849,
            0.6131,
            0.7898,
            0.9642,
            0.9097,
            0.9449,
            0.5739,
            0.6245,
            0.6591,
            0.863,
            0.8362,
            1.317,
            1.452,
            1.218,
            1.24,
            0.8554,
            0.6001,
            0.4685,
            0.7591,
            1.139,
            1.161,
            1.249,
            1.308,
            1.059,
            1.293,
            2.071,
            2.034,
            2.144,
            1.648,
            1.59,
            1.358,
            1.405,
            1.322,
            1.466,
            1.153,
            1.129,
            0.9596,
            0.7201,
            0.7902,
            0.6958,
            0.7999,
            0.9521,
            0.9137,
            0.8718,
            1.084,
            1.134,
            1.154,
            1.072,
            0.9306,
            1.198,
            1.305,
            1.738,
            1.858,
            1.817,
            1.638,
            1.633,
            1.6,
            1.745,
            1.656,
            1.502,
            1.288,
            1.115,
            1.375,
            1.72,
            1.745,
            1.982,
            1.826,
            1.905,
            1.86,
            1.613,
            1.345,
            1.218,
            1.212,
            1.114,
            1.264,
            1.227,
            1.305,
            1.144,
            1.418,
            1.05,
            0.9603,
            0.9151,
            0.7844,
            1.05,
            1.191,
            1.091,
            1.566,
            1.323,
            1.246,
            0.9552,
            0.8191,
            0.7629,
            0.9774,
            1.363,
            1.333,
            1.516,
            1.627,
            1.572,
            1.47,
            1.375,
            1.158,
            1.12,
            0.9815,
            1.036,
            1.019,
            1.186,
            1.167,
            1.128,
            0.9253,
            1.042,
            1.138,
            1.463,
            1.889,
            2.033,
            1.847,
            1.526,
            1.487,
            1.55,
            1.559,
            1.422,
            1.397,
            1.1,
            0.9851,
            0.7193,
            0.77,
            0.7781,
            0.7817,
            0.7005,
            0.6853,
            0.6325,
            0.6657,
            0.6975,
            0.707,
            0.8073,
            0.7552,
            0.954,
            1.209,
            1.423,
            1.476,
            1.426,
            1.592,
            1.29,
            0.9624,
            0.8665,
            0.7638,
            0.8562,
            0.8476,
            0.831,
            0.9169,
            0.9458,
            0.8979,
            0.8563,
            1.022,
            1.101,
            1.339,
            1.504,
            1.337,
            1.249,
            1.118,
            1.062,
            0.9551,
            0.9857,
            1.034,
            1.039,
            1.082,
            1.065,
            1.162,
            1.082,
            1.175,
            1.249,
            1.018,
            0.9875,
            0.8635,
            0.7376,
            0.6018,
            0.7041,
            0.8965,
            1.207,
            1.326,
            1.765,
            2.047,
            2.716,
            2.767,
            2.353,
            2.058,
            1.668,
            1.393,
            1.324,
            1.317,
            1.298,
            1.164,
            1.087,
            1.135,
            1.376,
            1.348,
            1.106,
            0.9842,
            0.8221,
            0.618,
            0.7728,
            0.9235,
            1.232,
            1.309,
            1.194,
            1.219,
            1.368,
            1.452,
            1.274,
            0.9424,
            0.7545,
            0.5849,
            0.5724,
            0.7257,
            0.8496,
            1.141,
            1.394,
            1.727,
            2.055,
            2.114,
            2.088,
            1.948,
            1.852,
            1.563,
            1.115,
            0.9378,
            1.008,
            1.073,
            1.09,
            1.068,
            0.9117,
            0.8946,
            1.084,
            1.268,
            1.364,
            1.314,
            1.404,
            1.411,
            1.117,
            0.9303,
            0.9614,
            0.763,
            1.02,
            1.024,
            0.9197,
            0.7954,
            0.7148,
            0.3718,
            0.4082,
            0.5155,
            0.551,
            0.5841,
            0.5711,
            0.6052,
            0.7519,
            0.8794,
            1.128,
            1.409,
            1.423,
            1.232,
            1.097,
            0.8382,
            0.5478,
            0.565,
            0.5212,
            0.5035,
            0.5403,
            0.6848,
            0.9709,
            1.21,
            1.233,
            1.424,
            1.393,
            1.245,
            1.147,
            1.15,
            1.143,
            1.15,
            1.08,
            1.018,
            0.7554,
            0.706,
            0.6839,
            0.7866,
            1.06,
            1.331,
            1.487,
            1.511,
            1.45,
            1.211,
            1.15,
            1.016,
            1.07,
            0.9963,
            1.004,
            1.116,
            1.324,
            1.603,
            1.779,
            1.494,
            1.143,
            0.8639,
            0.7808,
            0.797,
            0.7899,
            0.8715,
            0.8666,
            0.7972,
            0.8888,
            0.8654,
            0.9089,
            0.9526,
            0.9563,
            0.9151,
            0.8901,
            1.031,
            1.086,
            1.244,
            1.273,
            1.192,
            1.295,
            1.446,
            1.386,
            1.357,
            1.404,
            1.522,
            1.257,
            1.054,
            1.032,
            0.9562,
            0.963,
            0.7778,
            0.8268,
            0.6334,
            0.6842,
            0.8194,
            1.014,
            1.108,
            1.242,
            1.168,
            1.227,
            1.0,
            0.7108,
            0.5689,
            0.38,
            0.5574,
            0.5909,
            0.7273,
            0.827,
            0.8599,
            0.9232,
            0.993,
            0.9222,
            0.8462,
            0.7908,
            0.9826,
            1.02,
            1.062,
            1.263,
            1.183,
            1.233,
            1.213,
            1.242,
            1.278,
            1.131,
            1.269,
            1.33,
            1.016,
            0.7921,
            0.7399,
            0.8724,
            0.8357,
            0.8554,
            0.833,
            0.9881,
            1.085,
            0.8431,
            0.6693,
            0.7191,
            0.9537,
            0.9624,
            0.8217,
            0.7878,
            1.116,
            1.286,
            1.351,
            1.066,
            0.998,
            0.9847,
            0.9429,
            1.121,
            1.166,
            0.9888,
            0.707,
            0.7416,
            0.8244,
            0.6796,
            0.6209,
            0.6464,
            0.6949,
            0.807,
            0.7629,
            0.7865,
            0.7311,
            0.6816,
            0.6275,
            0.6182,
            0.5781,
            0.5193,
            0.457,
            0.4218,
            0.3801,
            0.5398,
            0.6395,
            0.7992,
            0.8684,
            0.7148,
            0.5671,
            0.6178,
            0.88,
            1.047,
            1.167,
            1.415,
            1.274,
            0.8403,
            0.742,
            0.6822,
            0.6532,
            0.6353,
            0.6391,
            0.5684,
            0.511,
            0.5959,
            0.8879,
            1.059,
            0.9631,
            0.8506,
            0.828,
            0.8026,
            0.7621,
            0.6346,
            0.6719,
            0.8647,
            1.029,
            1.082,
            0.8986,
            0.6509,
            0.5075,
            0.6819,
            0.7211,
            0.6914,
            0.6489,
            0.4632,
            0.5829,
            0.6302,
            0.6058,
            0.5533,
            0.6006,
            0.7635,
            0.7916,
            0.8203,
            0.9321,
            0.9692,
            1.06,
            1.076,
            0.8782,
            0.6624,
            0.5735,
            0.7964,
            0.9825,
            1.127,
            1.071,
            0.9896,
            0.9223,
            0.9939,
            1.072,
            0.928,
            0.7805,
            0.6868,
            0.6354,
            0.4558,
            0.4862,
            0.6132,
            0.7566,
            0.8707,
            0.8614,
            0.726,
            0.7271,
            0.9196,
            1.244,
            1.492,
            1.287,
            1.172,
            1.022,
            0.6754,
            0.5183,
            0.6326,
            0.7943,
            0.7484,
            0.6015,
            0.4267,
            0.3873,
            0.4913,
            0.5976,
            0.5922,
            0.5374,
            0.7162,
            0.7514,
            0.8021,
            0.7412,
            0.6593,
            0.7133,
            0.8673,
            0.9441,
            0.8872,
            0.7875,
            0.7171,
            0.7865,
            0.8203,
            0.744,
            0.6031,
            0.5423,
            0.5123,
            0.5434,
            0.5492,
            0.5619,
            0.5858,
            0.6176,
            0.5856,
            0.5541,
            0.6857,
            0.7332,
            0.9282,
            0.7733,
            0.5807,
            0.5276,
            0.5391,
            0.748,
            0.8822,
            0.9013,
            0.6754,
            0.4827,
            0.3556,
            0.3584,
            0.4157,
            0.5668,
            0.6427,
            0.6486,
            0.512,
            0.4699,
            0.4329,
            0.2915,
            0.2831,
            0.3793,
            0.5207,
            0.5242,
            0.5979,
            0.6256,
            0.5458,
            0.5054,
            0.5098,
            0.5545,
            0.7476,
            0.8125,
            0.8992,
            0.7395,
            0.5858,
            0.5128,
            0.5221,
            0.5071,
            0.6055,
            0.6233,
            0.5929,
            0.7161,
            0.7138,
            0.5861,
            0.5279,
            0.5972,
            0.7413,
            0.8527,
            0.7031,
            0.5927,
            0.6078,
            0.6402,
            0.656,
            0.7278,
            0.7283,
            0.6485,
            0.4976,
            0.4314,
            0.4471,
            0.5373,
            0.4931,
            0.439,
            0.3762,
            0.3587,
            0.4572,
            0.4967,
            0.5067,
            0.6929,
            0.5588,
            0.4524,
            0.4488,
            0.5119,
            0.539,
            0.4934,
            0.4731,
            0.4736,
            0.3664,
            0.5241,
            0.5386,
            0.6075,
            0.5928,
            0.4122,
            0.3966,
            0.4113,
            0.4449,
            0.4966,
            0.4482,
            0.3865,
            0.3284,
            0.5048,
            0.5022,
            0.3601,
            0.336,
            0.4725,
            0.4089,
            0.3865,
            0.3498,
            0.3682,
            0.4834,
            0.4782,
            0.4457,
            0.4102,
            0.4249,
            0.3547,
            0.3854,
            0.4068,
            0.398,
            0.3402,
            0.3374,
            0.3932,
            0.464,
            0.5424,
            0.4195,
            0.3841,
            0.395,
            0.3999,
            0.4277,
            0.3219,
            0.3201,
            0.3725,
            0.3918,
            0.3064,
            0.2945,
            0.3639,
            0.2999,
            0.2985,
            0.3426,
            0.3756,
            0.3423,
            0.3309,
            0.298,
            0.3418,
            0.3348,
            0.2911,
            0.3118,
            0.4027,
            0.3694,
            0.3757,
            0.278,
            0.3371,
            0.3701,
            0.3589,
            0.4046,
            0.2648,
            0.1908,
            0.2474,
            0.2693,
            0.2551,
            0.2784,
            0.2304,
            0.2378,
            0.1814,
            0.2287,
            0.2616,
            0.2347,
            0.2384,
            0.2238,
            0.2058,
            0.2101,
            0.2145,
            0.2213,
            0.2063,
            0.212,
            0.2274,
            0.2216,
            0.1836,
            0.1823,
            0.197,
            0.2131,
            0.1942,
            0.1927,
            0.1655,
            0.164,
            0.1739,
            0.2147,
            0.1947,
            0.2029,
            0.2025,
            0.208,
            0.185,
            0.1687,
            0.2091,
            0.2143,
            0.2076,
            0.2112,
            0.1768,
            0.1611,
            0.1713,
            0.1865,
            0.1742,
            0.1821,
            0.1897,
            0.17,
            0.1801,
            0.1734,
            0.1736,
            0.1744,
            0.1754,
            0.174,
            0.167,
            0.1616,
            0.1752,
            0.1659,
            0.1599,
            0.1612,
            0.1564,
            0.1549,
            0.174,
            0.1641,
            0.1618,
            0.1521,
            0.1465,
            0.14,
            0.1561,
            0.1524,
            0.1456,
            0.1434,
            0.1449,
            0.1474,
            0.1362,
            0.13,
            0.1389,
            0.141,
            0.1361,
            0.1339,
            0.1299,
            0.1357,
            0.1363,
            0.1386,
            0.1388,
            0.1371,
            0.1302,
            0.1318,
            0.1237,
            0.1264,
            0.1471,
            0.1558,
            0.1485,
            0.1294,
            0.133,
            0.1347,
            0.1338,
            0.1459,
            0.1557,
            0.1727,
            0.15,
            0.1404,
            0.1357,
            0.1286,
            0.1256,
            0.116,
            0.1184,
            0.1153,
            0.1152,
            0.1219,
            0.1224,
            0.1296,
            0.1202,
            0.1264,
            0.1239,
            0.1208,
            0.117,
            0.1147,
            0.1172,
            0.1209,
            0.1189,
            0.1237,
            0.1178,
            0.1187,
            0.113,
            0.1213,
            0.1204,
            0.114,
            0.106,
            0.1128
          ],
          [
            87.84,
            83.11,
            77.68,
            67.39,
            61.78,
            55.41,
            51.76,
            47.39,
            39.85,
            35.48,
            31.01,
            28.1,
            29.14,
            17.55,
            12.48,
            11.4,
            10.29,
            9.193,
            8.199,
            7.322,
            6.514,
            5.883,
            5.273,
            4.798,
            4.351,
            4.022,
            3.795,
            3.61,
            3.522,
            3.469,
            3.287,
            3.383,
            8.281,
            7.988,
            8.264,
            7.908,
            8.099,
            8.096,
            8.068,
            8.172,
            8.325,
            6.916,
            4.339,
            4.223,
            4.15,
            4.193,
            4.192,
            4.311,
            4.481,
            4.72,
            5.104,
            5.654,
            6.498,
            7.703,
            9.451,
            21.51,
            22.49,
            23.54,
            24.38,
            25.19,
            25.56,
            25.86,
            25.73,
            25.26,
            24.31,
            23.42,
            21.96,
            20.56,
            19.01,
            7.806,
            5.603,
            4.142,
            3.186,
            2.517,
            2.045,
            1.72,
            1.445,
            1.248,
            1.068,
            0.9367,
            0.827,
            0.7267,
            0.656,
            0.5938,
            0.7593,
            0.7726,
            0.7204,
            0.6459,
            0.573,
            0.5252,
            0.5246,
            0.5131,
            0.4218,
            0.4017,
            0.3943,
            0.3413,
            0.3237,
            0.316,
            0.3095,
            0.3,
            0.2849,
            0.2854,
            0.2706,
            0.7181,
            0.7711,
            0.6824,
            0.665,
            0.7604,
            0.7927,
            0.7866,
            0.8551,
            0.8715,
            0.983,
            1.003,
            1.141,
            1.313,
            1.568,
            2.121,
            2.916,
            3.905,
            4.533,
            4.25,
            3.4,
            2.498,
            1.854,
            1.452,
            1.238,
            1.144,
            1.103,
            1.062,
            1.034,
            1.036,
            1.025,
            0.9133,
            1.024,
            0.9943,
            1.061,
            1.007,
            1.088,
            1.133,
            1.07,
            1.207,
            1.201,
            1.37,
            1.484,
            1.53,
            1.79,
            2.045,
            2.416,
            2.913,
            3.618,
            4.623,
            5.501,
            5.729,
            5.115,
            3.857,
            2.867,
            2.174,
            1.753,
            1.469,
            1.236,
            1.1,
            0.9671,
            0.9032,
            0.8502,
            0.7469,
            0.7879,
            0.6813,
            0.5988,
            0.6291,
            0.5652,
            0.5772,
            0.5125,
            0.48,
            0.5226,
            0.4722,
            0.4299,
            0.4822,
            0.403,
            0.3903,
            0.3523,
            0.3207,
            0.6638,
            0.8031,
            0.6362,
            0.8514,
            0.7493,
            0.8274,
            0.6711,
            0.7129,
            0.5229,
            0.8929,
            0.8395,
            0.7113,
            0.6783,
            0.8172,
            0.8128,
            0.7159,
            0.8726,
            0.8297,
            0.8049,
            0.6266,
            0.7348,
            0.7658,
            0.9346,
            0.8392,
            0.9986,
            0.832,
            1.089,
            1.087,
            1.167,
            1.247,
            1.252,
            1.54,
            1.646,
            1.893,
            2.086,
            2.482,
            2.941,
            3.357,
            3.571,
            3.615,
            3.512,
            3.225,
            2.785,
            2.299,
            2.001,
            1.661,
            1.407,
            1.189,
            1.084,
            0.9522,
            1.022,
            0.8233,
            1.122,
            0.854,
            0.7932,
            0.883,
            0.885,
            0.8886,
            0.9808,
            0.8984,
            0.938,
            1.019,
            1.028,
            0.9955,
            1.01,
            1.035,
            1.181,
            1.143,
            1.327,
            1.323,
            1.415,
            1.499,
            1.594,
            1.782,
            1.972,
            2.225,
            2.591,
            3.02,
            3.537,
            3.914,
            4.249,
            4.623,
            4.715,
            4.496,
            3.971,
            3.516,
            2.961,
            2.586,
            2.228,
            2.124,
            2.002,
            2.111,
            2.134,
            2.093,
            2.09,
            2.117,
            1.961,
            2.009,
            2.111,
            2.245,
            2.468,
            2.727,
            3.171,
            3.789,
            4.536,
            6.038,
            7.867,
            9.611,
            10.73,
            10.47,
            9.202,
            7.328,
            5.563,
            4.169,
            3.337,
            2.695,
            2.194,
            1.88,
            1.583,
            1.349,
            1.244,
            1.189,
            1.099,
            1.203,
            1.3,
            1.287,
            1.523,
            1.673,
            2.063,
            2.366,
            2.636,
            2.825,
            2.921,
            2.739,
            2.555,
            2.274,
            1.86,
            1.66,
            1.435,
            1.394,
            1.205,
            1.099,
            1.023,
            0.9468,
            0.9279,
            0.9329,
            0.8764,
            0.8568,
            0.8949,
            0.8591,
            0.8529,
            0.7804,
            0.7962,
            0.5936,
            0.8342,
            0.774,
            0.6458,
            0.764,
            0.6251,
            0.5786,
            0.8063,
            0.8066,
            1.03,
            1.148,
            1.186,
            1.362,
            1.58,
            1.746,
            1.677,
            1.571,
            1.41,
            1.214,
            1.009,
            0.9013,
            0.7138,
            0.7723,
            0.7473,
            0.8084,
            0.5772,
            0.6416,
            0.6306,
            0.6446,
            0.6426,
            0.6768,
            0.8268,
            0.8324,
            0.8737,
            0.8095,
            0.9342,
            0.9891,
            1.077,
            1.206,
            1.382,
            1.712,
            2.104,
            2.749,
            3.662,
            4.523,
            5.522,
            5.855,
            6.215,
            6.129,
            5.573,
            5.089,
            4.139,
            3.195,
            2.656,
            2.166,
            1.921,
            1.718,
            1.769,
            2.528,
            5.302,
            7.235,
            10.39,
            8.366,
            3.416,
            2.36,
            1.818,
            1.124,
            1.137,
            0.8807,
            0.9684,
            0.9934,
            0.7327,
            0.8335,
            0.9479,
            0.9237,
            0.9296,
            0.9547,
            1.086,
            1.193,
            1.458,
            1.723,
            2.137,
            2.759,
            3.122,
            3.258,
            3.089,
            2.658,
            2.418,
            2.445,
            2.427,
            2.872,
            3.45,
            4.541,
            5.604,
            5.647,
            4.579,
            3.144,
            2.162,
            1.519,
            1.206,
            1.076,
            0.9811,
            0.9108,
            0.8317,
            0.7751,
            0.6293,
            0.6169,
            0.7748,
            0.6597,
            0.718,
            0.7435,
            0.7133,
            0.687,
            0.7486,
            0.7352,
            0.6988,
            0.7518,
            0.8127,
            0.8102,
            0.8599,
            0.8111,
            0.8045,
            0.8234,
            0.9317,
            0.9988,
            1.218,
            1.345,
            1.327,
            1.147,
            0.931,
            0.8889,
            0.8669,
            0.8931,
            1.087,
            1.185,
            1.441,
            1.754,
            2.336,
            3.411,
            6.052,
            10.31,
            11.71,
            8.471,
            6.007,
            5.019,
            3.222,
            1.873,
            1.275,
            0.8907,
            0.7441,
            0.591,
            0.6734,
            0.9083,
            1.074,
            1.131,
            1.188,
            1.401,
            1.948,
            2.173,
            1.632,
            0.9469,
            0.5964,
            0.5624,
            0.508,
            0.4119,
            0.4885,
            0.4896,
            0.4945,
            0.5082,
            0.5607,
            0.6207,
            0.7493,
            0.8561,
            1.093,
            1.4,
            1.945,
            2.449,
            2.325,
            1.756,
            1.406,
            1.441,
            1.263,
            1.139,
            1.028,
            0.8294,
            0.8777,
            0.8619,
            0.6699,
            0.8587,
            0.9623,
            1.322,
            1.791,
            2.753,
            3.241,
            3.165,
            2.697,
            2.636,
            3.209,
            3.716,
            3.67,
            2.852,
            1.788,
            1.091,
            0.6115,
            0.6441,
            0.6047,
            0.7192,
            0.727,
            0.7337,
            0.6921,
            0.6674,
            0.7004,
            0.7695,
            0.8783,
            0.7528,
            0.7889,
            0.6998,
            0.9316,
            0.9423,
            1.044,
            1.468,
            1.721,
            2.131,
            2.146,
            1.898,
            1.61,
            1.916,
            2.247,
            2.813,
            3.318,
            3.606,
            3.656,
            3.481,
            3.588,
            3.184,
            2.774,
            2.195,
            1.563,
            1.262,
            1.153,
            0.9019,
            0.9634,
            0.7213,
            0.8377,
            0.8605,
            0.9809,
            1.121,
            1.276,
            1.691,
            2.202,
            2.622,
            2.983,
            2.881,
            2.213,
            1.682,
            1.28,
            0.999,
            0.9062,
            0.7448,
            0.696,
            0.6743,
            0.571,
            0.5482,
            0.4874,
            0.5539,
            0.6652,
            0.7007,
            0.6121,
            0.539,
            0.401,
            0.4382,
            0.4583,
            0.6922,
            1.057,
            1.725,
            2.819,
            3.8,
            3.411,
            2.295,
            1.802,
            2.344,
            3.515,
            4.357,
            3.844,
            2.803,
            2.2,
            2.074,
            1.839,
            1.644,
            1.49,
            1.256,
            0.9952,
            0.6323,
            0.5372,
            0.4941,
            0.5392,
            0.6445,
            0.8656,
            1.116,
            1.389,
            2.159,
            3.057,
            3.618,
            3.447,
            3.738,
            4.401,
            3.508,
            2.002,
            0.9681,
            0.5514,
            0.4626,
            0.3961,
            0.2633,
            0.3075,
            0.2297,
            0.2077,
            0.3748,
            0.1871,
            0.3097,
            0.57,
            0.7793,
            1.048,
            1.359,
            1.298,
            0.9759,
            0.6285,
            0.4126,
            0.2949,
            0.2949,
            0.181,
            0.3035,
            0.328,
            0.398,
            0.3025,
            0.3572,
            0.264,
            0.7466,
            1.393,
            1.967,
            1.816,
            1.055,
            0.6093,
            0.7869,
            0.9956,
            1.173,
            0.9497,
            0.8527,
            1.227,
            1.528,
            1.484,
            1.248,
            1.61,
            2.582,
            2.879,
            2.246,
            1.211,
            0.5978,
            0.4524,
            0.3244,
            0.3219,
            0.1216,
            0.2162,
            0.362,
            0.2855,
            0.3953,
            0.7542,
            1.348,
            1.756,
            1.801,
            2.573,
            4.147,
            4.436,
            2.395,
            0.8618,
            0.4957,
            0.7425,
            1.088,
            1.816,
            2.61,
            2.783,
            2.149,
            1.494,
            1.006,
            0.8124,
            0.7449,
            0.7981,
            1.21,
            1.964,
            2.56,
            2.571,
            1.929,
            1.157,
            1.451,
            2.307,
            2.723,
            2.136,
            1.468,
            1.226,
            1.27,
            0.8525,
            0.6836,
            0.7374,
            0.5555,
            0.3972,
            0.4837,
            0.4782,
            0.6009,
            0.5743,
            0.7537,
            0.6578,
            0.4038,
            0.3362,
            0.3508,
            0.3034,
            0.4447,
            0.4546,
            0.538,
            0.5135,
            0.6035,
            0.5961,
            0.7142,
            0.7647,
            0.8202,
            0.8837,
            1.191,
            1.9,
            3.062,
            3.963,
            3.71,
            2.642,
            1.692,
            1.324,
            1.215,
            1.26,
            1.06,
            0.6297,
            0.3807,
            0.3248,
            0.3462,
            0.1786,
            0.068,
            0.3717,
            0.5602,
            0.9111,
            1.025,
            0.8152,
            0.5308,
            0.3592,
            0.3658,
            0.3188,
            0.4139,
            0.4599,
            0.422,
            0.5495,
            0.596,
            0.5158,
            0.6033,
            0.934,
            1.089,
            0.9616,
            0.7009,
            0.4972,
            0.359,
            0.6925,
            0.7306,
            0.5576,
            0.5909,
            0.5991,
            1.053,
            1.517,
            1.586,
            1.08,
            0.7214,
            0.5937,
            0.87,
            1.212,
            1.448,
            1.443,
            1.204,
            1.13,
            0.9498,
            0.8056,
            0.726,
            1.024,
            1.744,
            1.985,
            1.495,
            0.8311,
            0.6836,
            0.7252,
            1.328,
            1.983,
            2.128,
            1.507,
            0.9358,
            0.9088,
            0.9852,
            1.032,
            0.7235,
            0.5508,
            0.5092,
            0.8296,
            1.535,
            2.416,
            2.456,
            1.684,
            1.202,
            1.185,
            1.238,
            0.9157,
            0.8201,
            1.287,
            2.052,
            2.401,
            1.706,
            0.8552,
            0.5641,
            1.144,
            2.755,
            2.19,
            1.367,
            1.041,
            0.8464,
            0.6718,
            0.5195,
            0.355,
            0.264,
            0.3615,
            0.4104,
            0.5938,
            1.056,
            1.232,
            1.166,
            0.9409,
            0.6287,
            0.6208,
            0.8309,
            1.268,
            1.483,
            1.215,
            1.118,
            1.25,
            1.201,
            1.085,
            1.336,
            1.49,
            1.049,
            0.5897,
            0.3045,
            0.3655,
            0.4207,
            0.8613,
            1.235,
            1.583,
            1.327,
            0.8714,
            0.5706,
            0.4897,
            0.4833,
            0.6391,
            0.9559,
            1.007,
            1.034,
            1.183,
            1.397,
            1.567,
            1.632,
            1.669,
            1.604,
            1.538,
            1.606,
            1.709,
            1.53,
            1.584,
            1.633,
            1.441,
            1.207,
            0.7649,
            0.6588,
            0.7266,
            0.7875,
            1.112,
            1.235,
            1.461,
            1.519,
            1.494,
            1.169,
            1.054,
            0.6489,
            0.5395,
            0.4336,
            0.3956,
            0.3064,
            0.3197,
            0.3503,
            0.5253,
            0.6363,
            0.6833,
            0.6992,
            0.6278,
            0.6094,
            0.724,
            1.058,
            1.401,
            1.866,
            1.923,
            1.76,
            1.54,
            1.584,
            2.13,
            3.145,
            3.981,
            4.308,
            3.631,
            2.712,
            1.8,
            1.375,
            1.431,
            1.893,
            2.512,
            3.439,
            4.505,
            5.532,
            5.562,
            4.131,
            3.279,
            2.69,
            2.6,
            2.799,
            3.318,
            3.851,
            4.163,
            3.844,
            3.436,
            2.549,
            1.801,
            1.034,
            0.5254,
            0.5217,
            0.5338,
            0.699,
            0.9191,
            1.179,
            1.619,
            1.892,
            1.895,
            1.767,
            1.731,
            1.98,
            2.316,
            2.377,
            2.0,
            1.51,
            1.035,
            0.8698,
            0.9347,
            1.066,
            1.19,
            1.287,
            1.386,
            1.446,
            1.59,
            1.514,
            1.37,
            0.9019,
            0.4682,
            0.6056,
            0.5928,
            0.909,
            1.167,
            1.38,
            1.401,
            1.319,
            1.186,
            1.321,
            1.404,
            1.45,
            1.366,
            1.175,
            0.7641,
            0.5796,
            0.7389,
            0.9115,
            1.142,
            1.059,
            0.6967,
            0.4408,
            0.7221,
            0.5604,
            0.6171,
            0.5809,
            0.545,
            0.6776,
            0.7777,
            1.151,
            1.625,
            2.051,
            2.542,
            2.948,
            3.224,
            3.019,
            2.539,
            2.406,
            2.258,
            2.054,
            2.083,
            2.425,
            3.107,
            3.306,
            2.762,
            1.786,
            1.198,
            1.013,
            0.9976,
            0.8472,
            0.8557,
            0.9603,
            1.068,
            1.293,
            1.418,
            1.612,
            1.536,
            1.16,
            0.8025,
            0.3884,
            0.2824,
            0.2541,
            0.5299,
            0.7344,
            0.8258,
            1.179,
            1.556,
            1.723,
            1.381,
            0.7985,
            0.5671,
            0.3185,
            0.4608,
            0.5779,
            0.6795,
            0.6831,
            0.6196,
            0.8066,
            1.142,
            1.581,
            2.02,
            1.879,
            1.37,
            0.9853,
            0.9666,
            1.035,
            0.906,
            0.6679,
            0.5525,
            0.9042,
            1.317,
            1.289,
            1.085,
            0.7089,
            0.624,
            0.449,
            0.443,
            0.2538,
            0.3674,
            0.4184,
            0.7135,
            1.085,
            1.875,
            2.691,
            2.904,
            2.343,
            1.408,
            0.6915,
            0.3711,
            0.3387,
            0.3744,
            0.5182,
            0.5537,
            0.5152,
            0.3881,
            0.4182,
            0.4301,
            0.405,
            0.7806,
            1.108,
            1.344,
            1.115,
            0.7847,
            0.6868,
            0.964,
            1.339,
            1.576,
            1.496,
            1.411,
            1.534,
            1.728,
            1.792,
            1.875,
            1.693,
            1.293,
            0.88,
            0.6812,
            0.6079,
            0.7089,
            1.06,
            1.38,
            1.271,
            1.106,
            1.224,
            1.628,
            2.134,
            2.046,
            1.627,
            1.277,
            1.503,
            1.496,
            1.161,
            0.7106,
            0.6979,
            0.9529,
            1.233,
            1.33,
            1.009,
            0.743,
            0.5561,
            0.5288,
            0.6168,
            0.9276,
            1.332,
            1.303,
            1.026,
            0.7155,
            0.5812,
            0.7501,
            0.8443,
            1.296,
            1.553,
            1.527,
            1.193,
            1.042,
            1.234,
            1.211,
            0.9128,
            0.6892,
            0.6901,
            0.8356,
            1.135,
            1.207,
            1.051,
            0.848,
            0.9525,
            1.144,
            1.45,
            1.452,
            1.595,
            1.573,
            1.062,
            0.86,
            0.8507,
            0.8513,
            0.7244,
            0.736,
            0.9467,
            1.296,
            1.333,
            1.286,
            0.9088,
            0.7096,
            0.8914,
            1.055,
            1.015,
            0.8276,
            1.235,
            2.274,
            3.39,
            3.665,
            2.779,
            1.587,
            0.9988,
            0.8003,
            0.736,
            0.7682,
            0.9943,
            1.184,
            1.483,
            1.258,
            0.7585,
            0.8325,
            0.9413,
            0.8032,
            0.5378,
            0.5881,
            0.459,
            0.5129,
            0.6736,
            0.8955,
            1.09,
            1.122,
            0.9574,
            0.9052,
            0.6594,
            0.6297,
            0.4783,
            0.3898,
            0.2994,
            0.448,
            0.633,
            0.8754,
            0.9688,
            1.034,
            0.8211,
            0.8183,
            0.7116,
            0.6532,
            0.849,
            1.289,
            1.385,
            0.9916,
            0.678,
            0.7236,
            0.7374,
            0.8322,
            0.8315,
            1.418,
            2.049,
            1.912,
            1.934,
            2.086,
            1.728,
            1.416,
            1.809,
            1.738,
            1.092,
            0.914,
            1.038,
            1.609,
            2.035,
            1.789,
            1.269,
            1.167,
            1.129,
            1.296,
            1.246,
            1.136,
            0.8184,
            0.6023,
            0.3884,
            0.4967,
            0.574,
            0.4053,
            0.2607,
            0.238,
            0.3875,
            0.6329,
            0.9695,
            0.8941,
            0.5779,
            0.4379,
            0.3727,
            0.507,
            0.7396,
            0.8343,
            0.6933,
            0.6847,
            0.7886,
            0.9423,
            1.047,
            1.056,
            0.7741,
            0.3848,
            0.4051,
            0.4996,
            0.7762,
            1.037,
            0.9768,
            0.8991,
            0.9489,
            0.9895,
            1.236,
            1.295,
            1.298,
            1.144,
            0.7389,
            0.665,
            0.7916,
            1.239,
            1.422,
            1.512,
            1.513,
            0.9937,
            0.8628,
            1.139,
            1.361,
            1.466,
            1.277,
            0.6412,
            0.5005,
            0.8136,
            1.139,
            0.9629,
            0.7234,
            0.678,
            0.4052,
            0.256,
            0.2222,
            0.258,
            0.1619,
            0.3828,
            0.7657,
            0.9884,
            0.8903,
            0.4945,
            0.2713,
            0.3709,
            0.8382,
            1.255,
            1.251,
            0.9023,
            0.7796,
            0.9435,
            1.096,
            1.271,
            1.446,
            1.31,
            0.7711,
            0.6877,
            0.7693,
            0.729,
            0.7971,
            1.014,
            0.9866,
            0.5781,
            0.3437,
            0.5065,
            0.8427,
            1.112,
            1.302,
            1.161,
            0.733,
            0.5414,
            0.7155,
            0.9066,
            0.8573,
            0.8416,
            0.5162,
            0.5516,
            0.5751,
            0.7231,
            0.7002,
            1.008,
            1.085,
            0.943,
            0.9586,
            0.7076,
            0.5268,
            0.424,
            0.65,
            0.8987,
            0.9021,
            0.9594,
            0.9909,
            0.8357,
            1.118,
            1.904,
            1.875,
            1.974,
            1.479,
            1.425,
            1.238,
            1.274,
            1.207,
            1.333,
            1.07,
            1.048,
            0.9018,
            0.6847,
            0.7495,
            0.6626,
            0.7584,
            0.8931,
            0.8614,
            0.8212,
            1.007,
            1.047,
            1.079,
            0.9967,
            0.8774,
            1.111,
            1.206,
            1.569,
            1.659,
            1.62,
            1.471,
            1.466,
            1.424,
            1.533,
            1.48,
            1.362,
            1.179,
            1.035,
            1.255,
            1.533,
            1.55,
            1.73,
            1.603,
            1.666,
            1.628,
            1.434,
            1.223,
            1.121,
            1.114,
            1.031,
            1.153,
            1.126,
            1.191,
            1.054,
            1.288,
            0.975,
            0.8982,
            0.8592,
            0.742,
            0.9783,
            1.094,
            1.005,
            1.405,
            1.206,
            1.14,
            0.896,
            0.7719,
            0.7225,
            0.9137,
            1.24,
            1.212,
            1.352,
            1.441,
            1.402,
            1.324,
            1.248,
            1.062,
            1.035,
            0.9161,
            0.9625,
            0.9513,
            1.087,
            1.07,
            1.041,
            0.8666,
            0.9688,
            1.049,
            1.314,
            1.641,
            1.739,
            1.599,
            1.358,
            1.335,
            1.387,
            1.392,
            1.275,
            1.258,
            1.012,
            0.9182,
            0.6825,
            0.7286,
            0.7353,
            0.7389,
            0.6668,
            0.6524,
            0.6039,
            0.6339,
            0.6638,
            0.6722,
            0.7633,
            0.7182,
            0.894,
            1.109,
            1.277,
            1.311,
            1.28,
            1.41,
            1.17,
            0.8995,
            0.8159,
            0.7226,
            0.805,
            0.7969,
            0.7836,
            0.8576,
            0.8837,
            0.8424,
            0.8095,
            0.9513,
            1.018,
            1.214,
            1.346,
            1.216,
            1.141,
            1.029,
            0.9829,
            0.8884,
            0.9192,
            0.96,
            0.9635,
            0.9984,
            0.9786,
            1.062,
            0.9961,
            1.074,
            1.134,
            0.9444,
            0.9177,
            0.8083,
            0.6996,
            0.5764,
            0.6695,
            0.8411,
            1.103,
            1.196,
            1.531,
            1.733,
            2.21,
            2.239,
            1.95,
            1.751,
            1.462,
            1.248,
            1.199,
            1.188,
            1.165,
            1.058,
            0.9946,
            1.028,
            1.232,
            1.208,
            1.008,
            0.9109,
            0.7703,
            0.5865,
            0.7251,
            0.858,
            1.117,
            1.18,
            1.084,
            1.099,
            1.223,
            1.291,
            1.145,
            0.873,
            0.707,
            0.5537,
            0.5421,
            0.6867,
            0.799,
            1.047,
            1.244,
            1.5,
            1.735,
            1.77,
            1.75,
            1.657,
            1.584,
            1.366,
            1.016,
            0.8654,
            0.9253,
            0.9777,
            0.9915,
            0.9779,
            0.8445,
            0.8315,
            0.9865,
            1.14,
            1.219,
            1.168,
            1.245,
            1.25,
            1.015,
            0.8606,
            0.886,
            0.7155,
            0.9358,
            0.9374,
            0.8497,
            0.7432,
            0.6722,
            0.3548,
            0.3901,
            0.492,
            0.5263,
            0.556,
            0.544,
            0.5759,
            0.711,
            0.8221,
            1.03,
            1.248,
            1.263,
            1.108,
            1.0,
            0.7827,
            0.5236,
            0.539,
            0.5,
            0.4843,
            0.5189,
            0.6496,
            0.8996,
            1.095,
            1.115,
            1.261,
            1.233,
            1.121,
            1.045,
            1.049,
            1.043,
            1.043,
            0.9837,
            0.937,
            0.7107,
            0.6651,
            0.6462,
            0.7365,
            0.9627,
            1.176,
            1.297,
            1.309,
            1.268,
            1.081,
            1.038,
            0.927,
            0.9738,
            0.9165,
            0.9269,
            1.03,
            1.219,
            1.447,
            1.575,
            1.329,
            1.041,
            0.8047,
            0.7295,
            0.7458,
            0.7352,
            0.8083,
            0.8003,
            0.7424,
            0.8218,
            0.8012,
            0.8403,
            0.8742,
            0.876,
            0.8412,
            0.8224,
            0.9378,
            0.9803,
            1.107,
            1.131,
            1.055,
            1.144,
            1.252,
            1.221,
            1.196,
            1.222,
            1.318,
            1.116,
            0.9537,
            0.9358,
            0.8731,
            0.8816,
            0.7221,
            0.7669,
            0.5978,
            0.6423,
            0.7596,
            0.9229,
            0.9971,
            1.102,
            1.037,
            1.088,
            0.9061,
            0.6651,
            0.5411,
            0.365,
            0.5339,
            0.5657,
            0.6873,
            0.7719,
            0.7943,
            0.8424,
            0.9055,
            0.8491,
            0.7898,
            0.745,
            0.9226,
            0.9496,
            0.9837,
            1.138,
            1.056,
            1.092,
            1.026,
            1.043,
            1.068,
            0.9617,
            1.063,
            1.104,
            0.8785,
            0.7058,
            0.6632,
            0.7724,
            0.7399,
            0.7556,
            0.7375,
            0.8535,
            0.9297,
            0.75,
            0.6099,
            0.6507,
            0.8424,
            0.851,
            0.7361,
            0.7084,
            0.9517,
            1.061,
            1.112,
            0.9016,
            0.8577,
            0.8533,
            0.822,
            0.9434,
            0.9771,
            0.8555,
            0.6327,
            0.6591,
            0.7269,
            0.6141,
            0.5653,
            0.5839,
            0.6267,
            0.7153,
            0.6826,
            0.7052,
            0.6608,
            0.6156,
            0.5718,
            0.564,
            0.5288,
            0.4807,
            0.4287,
            0.3954,
            0.359,
            0.5006,
            0.5833,
            0.7077,
            0.761,
            0.6425,
            0.5243,
            0.5633,
            0.7655,
            0.8889,
            0.9694,
            1.139,
            1.055,
            0.7492,
            0.674,
            0.6182,
            0.5924,
            0.5744,
            0.5799,
            0.5196,
            0.471,
            0.5427,
            0.772,
            0.894,
            0.8214,
            0.7399,
            0.7206,
            0.7021,
            0.6705,
            0.5729,
            0.5993,
            0.7503,
            0.8698,
            0.9059,
            0.7748,
            0.586,
            0.4663,
            0.6081,
            0.6377,
            0.6139,
            0.5783,
            0.4268,
            0.5291,
            0.569,
            0.5477,
            0.5052,
            0.544,
            0.6687,
            0.6906,
            0.7141,
            0.7932,
            0.8204,
            0.8806,
            0.8907,
            0.7524,
            0.5899,
            0.5173,
            0.6881,
            0.8262,
            0.9296,
            0.8877,
            0.8343,
            0.781,
            0.8284,
            0.8867,
            0.7853,
            0.6746,
            0.6027,
            0.561,
            0.4125,
            0.4356,
            0.5385,
            0.6409,
            0.725,
            0.7086,
            0.6075,
            0.6164,
            0.7709,
            0.9941,
            1.186,
            1.065,
            0.9749,
            0.8558,
            0.5933,
            0.4671,
            0.5626,
            0.688,
            0.6471,
            0.5271,
            0.3616,
            0.352,
            0.4471,
            0.5343,
            0.5277,
            0.4849,
            0.6251,
            0.6539,
            0.6811,
            0.6445,
            0.5842,
            0.6251,
            0.732,
            0.7853,
            0.7399,
            0.6773,
            0.6252,
            0.6777,
            0.6974,
            0.6427,
            0.535,
            0.4882,
            0.4634,
            0.4874,
            0.4937,
            0.5029,
            0.5233,
            0.5466,
            0.5236,
            0.498,
            0.6018,
            0.63,
            0.7703,
            0.6602,
            0.5191,
            0.4744,
            0.4834,
            0.6424,
            0.7385,
            0.7487,
            0.5868,
            0.4373,
            0.3314,
            0.3336,
            0.3835,
            0.5101,
            0.5716,
            0.5738,
            0.4636,
            0.4276,
            0.3987,
            0.2751,
            0.2677,
            0.3526,
            0.4689,
            0.4721,
            0.5307,
            0.5508,
            0.4883,
            0.4563,
            0.4648,
            0.5073,
            0.6798,
            0.715,
            0.7575,
            0.6279,
            0.517,
            0.4606,
            0.4688,
            0.4564,
            0.5337,
            0.5449,
            0.5191,
            0.6136,
            0.6088,
            0.5154,
            0.4687,
            0.5221,
            0.6255,
            0.7062,
            0.5973,
            0.518,
            0.5295,
            0.5546,
            0.5674,
            0.6148,
            0.6146,
            0.5599,
            0.4438,
            0.39,
            0.4036,
            0.4754,
            0.44,
            0.3983,
            0.3458,
            0.3308,
            0.4121,
            0.4419,
            0.4499,
            0.5909,
            0.4913,
            0.4059,
            0.4054,
            0.4567,
            0.4789,
            0.4499,
            0.4364,
            0.4333,
            0.3391,
            0.4643,
            0.4753,
            0.5248,
            0.5149,
            0.3301,
            0.3167,
            0.3274,
            0.3481,
            0.3778,
            0.3477,
            0.3098,
            0.2703,
            0.3813,
            0.3761,
            0.2892,
            0.2741,
            0.3649,
            0.3236,
            0.3052,
            0.281,
            0.2942,
            0.3635,
            0.3611,
            0.3475,
            0.3221,
            0.3271,
            0.2804,
            0.2987,
            0.3137,
            0.3065,
            0.269,
            0.2665,
            0.3004,
            0.3409,
            0.3834,
            0.3102,
            0.288,
            0.2944,
            0.2999,
            0.3147,
            0.2489,
            0.2466,
            0.2823,
            0.2953,
            0.2462,
            0.2365,
            0.2803,
            0.2381,
            0.2409,
            0.266,
            0.2867,
            0.2661,
            0.2654,
            0.2379,
            0.2648,
            0.2596,
            0.2322,
            0.2461,
            0.3,
            0.2772,
            0.2805,
            0.2226,
            0.2596,
            0.2781,
            0.2735,
            0.2982,
            0.1735,
            0.1371,
            0.1641,
            0.1765,
            0.1656,
            0.1748,
            0.1513,
            0.1544,
            0.1262,
            0.1503,
            0.1631,
            0.1488,
            0.1505,
            0.1444,
            0.1343,
            0.1362,
            0.138,
            0.1398,
            0.132,
            0.1351,
            0.1407,
            0.1367,
            0.1189,
            0.1174,
            0.1229,
            0.1329,
            0.1213,
            0.1188,
            0.1062,
            0.1058,
            0.1156,
            0.157,
            0.1442,
            0.1487,
            0.1475,
            0.1503,
            0.1357,
            0.1245,
            0.1482,
            0.1511,
            0.1467,
            0.1515,
            0.1311,
            0.1214,
            0.1281,
            0.1359,
            0.1295,
            0.1341,
            0.1371,
            0.1265,
            0.1317,
            0.1284,
            0.128,
            0.1277,
            0.1274,
            0.1272,
            0.1225,
            0.1191,
            0.125,
            0.1193,
            0.1161,
            0.1174,
            0.1128,
            0.1124,
            0.1233,
            0.117,
            0.1148,
            0.1091,
            0.1055,
            0.1016,
            0.1097,
            0.1054,
            0.1001,
            0.1004,
            0.103,
            0.1014,
            0.09496,
            0.09093,
            0.09432,
            0.09408,
            0.09073,
            0.08933,
            0.08605,
            0.08802,
            0.08819,
            0.08935,
            0.08763,
            0.08684,
            0.08253,
            0.08471,
            0.07865,
            0.07674,
            0.07572,
            0.08662,
            0.09006,
            0.0824,
            0.0856,
            0.08637,
            0.0865,
            0.09256,
            0.09828,
            0.1055,
            0.09607,
            0.08982,
            0.08603,
            0.08098,
            0.08064,
            0.08086,
            0.08033,
            0.0754,
            0.07415,
            0.07567,
            0.0727,
            0.07226,
            0.06773,
            0.06996,
            0.06786,
            0.06637,
            0.06422,
            0.06238,
            0.06239,
            0.06373,
            0.06279,
            0.06446,
            0.0598,
            0.0682,
            0.06033,
            0.05974,
            0.06095,
            0.05713,
            0.05218,
            0.06171
          ]
        ]
      }
    },
    "003": {
      "common": null,
      "data": {
        "heads": [
          "EN",
          "DATA",
          "ERR-T",
          "ERR-S"
        ],
        "units": [
          "EV",
          "B",
          "B",
          "B"
        ],
        "data": [
          [
            105400.0,
            110500.0,
            116100.0,
            121000.0,
            125200.0,
            129600.0,
            134300.0,
            139200.0,
            144400.0,
            149900.0,
            155700.0,
            161900.0,
            168400.0,
            175300.0,
            182700.0,
            190500.0,
            198900.0,
            207800.0,
            217400.0,
            227600.0,
            238500.0,
            250300.0,
            262900.0,
            276500.0,
            291200.0,
            307100.0,
            324400.0,
            343200.0,
            363600.0,
            385900.0,
            410300.0,
            437200.0,
            466700.0,
            499400.0,
            535600.0,
            575900.0,
            620900.0,
            671400.0,
            728400.0,
            792900.0,
            866400.0,
            950600.0,
            1048000.0,
            1161000.0,
            1293000.0,
            1449000.0,
            1635000.0,
            1860000.0,
            2135000.0,
            2475000.0,
            2905000.0,
            3457000.0,
            4183000.0,
            5168000.0,
            6548000.0,
            8573000.0,
            11720000.0,
            17040000.0
          ],
          [
            2.103,
            2.371,
            2.132,
            2.133,
            2.1,
            1.943,
            2.266,
            2.137,
            2.141,
            1.939,
            2.102,
            2.128,
            1.953,
            2.009,
            2.02,
            1.939,
            1.908,
            1.851,
            1.953,
            1.898,
            1.941,
            1.881,
            1.858,
            1.75,
            1.89,
            1.746,
            1.719,
            1.718,
            1.818,
            1.802,
            1.715,
            1.646,
            1.552,
            1.518,
            1.589,
            1.519,
            1.451,
            1.495,
            1.379,
            1.346,
            1.323,
            1.36,
            1.478,
            1.477,
            1.541,
            1.555,
            1.819,
            1.749,
            2.081,
            1.782,
            1.802,
            1.801,
            1.791,
            1.994,
            2.258,
            2.183,
            2.347,
            2.243
          ],
          [
            0.1167,
            0.1303,
            0.1181,
            0.1279,
            0.124,
            0.1133,
            0.1296,
            0.1251,
            0.1267,
            0.1152,
            0.1223,
            0.1226,
            0.112,
            0.1136,
            0.113,
            0.1095,
            0.1065,
            0.1041,
            0.1083,
            0.1049,
            0.1068,
            0.1026,
            0.1007,
            0.09445,
            0.1023,
            0.09274,
            0.09114,
            0.09054,
            0.09652,
            0.0938,
            0.08892,
            0.08485,
            0.07936,
            0.07733,
            0.08141,
            0.07807,
            0.07483,
            0.07615,
            0.06994,
            0.06862,
            0.06822,
            0.07035,
            0.0761,
            0.07516,
            0.07904,
            0.08105,
            0.09583,
            0.0939,
            0.1149,
            0.09971,
            0.1058,
            0.1062,
            0.1077,
            0.1213,
            0.1349,
            0.1295,
            0.1569,
            0.1666
          ],
          [
            0.07007,
            0.07765,
            0.07154,
            0.0867,
            0.08254,
            0.07378,
            0.08308,
            0.08077,
            0.08214,
            0.07625,
            0.0795,
            0.07869,
            0.07108,
            0.07093,
            0.06977,
            0.06662,
            0.06466,
            0.06425,
            0.06551,
            0.06318,
            0.06403,
            0.06017,
            0.05884,
            0.05433,
            0.05971,
            0.05225,
            0.05034,
            0.04994,
            0.05377,
            0.0497,
            0.04635,
            0.04374,
            0.04024,
            0.03872,
            0.04171,
            0.04027,
            0.03925,
            0.03845,
            0.03468,
            0.03449,
            0.03565,
            0.03712,
            0.03966,
            0.03792,
            0.04062,
            0.04343,
            0.0528,
            0.05388,
            0.06953,
            0.06149,
            0.07002,
            0.0707,
            0.07327,
            0.08361,
            0.09113,
            0.08689,
            0.1183,
            0.1345
          ]
        ]
      }
    }
  },
  "experimental_conditions": {
    "001": {
      "0": {
        "analysis": [
          {
            "x4_code": null,
            "free_txt": [
              "249-CF CONTAINED 26 PPB 252-CF."
            ]
          }
        ],
        "correction": [
          {
            "x4_code": null,
            "free_txt": [
              "2.1 COUNTS/SEC SPONTANEOUS FISSION(252-CF) BACKGROUND",
              "  SUBTRACTED."
            ]
          }
        ],
        "comment": [
          {
            "x4_code": null,
            "free_txt": [
              "THE CURRENT MEASUREMENT SUPERSEDES THE 1972 MEASUREMENT"
            ]
          }
        ],
        "detector": [
          {
            "x4_code": "(FISCH)",
            "free_txt": [
              " HEMISPHERICAL GASEOUS IONIZATION CHAMBER (NO",
              "        ALPHA BACKGROUND)."
            ]
          }
        ],
        "facility": [
          {
            "x4_code": "(LINAC,1USAORL)",
            "free_txt": [
              " ORELA"
            ]
          }
        ],
        "method": [
          {
            "x4_code": "(TOF)",
            "free_txt": [
              "TIME OF FLIGHT 9.1 M FLIGHT PATH 40NS PULSE WIDTH"
            ]
          }
        ],
        "sample": [
          {
            "x4_code": null,
            "free_txt": [
              "ULTRAPURE SAMPLE OF 131 MICROGRAMS."
            ]
          }
        ],
        "status": [
          {
            "x4_code": "(PRELM)",
            "free_txt": []
          },
          {
            "x4_code": "(APRVD)",
            "free_txt": [
              " J.W.T.DABBS, 84/6/8."
            ]
          }
        ]
      }
    },
    "002": {
      "0": {
        "err-analys": [
          {
            "x4_code": "(ERR-T)",
            "free_txt": [
              " TOTAL UNCERTAINTY"
            ]
          },
          {
            "x4_code": "(ERR-S)",
            "free_txt": [
              " STATISTICAL UNCERTAINTY",
              " SYSTEMATIC UNCERTAINTIES                (PERCENT)",
              "           235-U COUNTING EFFICIENCY        2.0",
              "           249-CF COUNTING EFFICIENCY       1.7",
              "           MASS OF 235-U                    1.0",
              "           MASS OF 249-CF                   1.0",
              "           6-LI(N,ALPHA) CROSS SECTION      1.0",
              "           235-U FISSION INTEGRAL           1.0",
              "          UNCERTAINTIES IN-",
              "           INSCATTERING CORRECTION         10.0",
              "           TRANSMISSION LOSS(1-T)          10.0"
            ]
          }
        ],
        "monitor": [
          {
            "x4_code": "(92-U-235(N,F),,INT)",
            "free_txt": []
          },
          {
            "x4_code": "(3-LI-6(N,T)2-HE-4,,SIG)",
            "free_txt": [
              "   ENDF/B V AS SHAPE NORMALIZED TO THE U-235(N,F)",
              "   INTEGRAL FROM 7.8 TO 11. EV."
            ]
          }
        ]
      }
    },
    "003": {
      "0": {
        "err-analys": [
          {
            "x4_code": "(ERR-T)",
            "free_txt": [
              " TOTAL UNCERTAINTY"
            ]
          },
          {
            "x4_code": "(ERR-S)",
            "free_txt": [
              " STATISTICAL UNCERTAINTY",
              " SYSTEMATIC UNCERTAINTIES                (PERCENT)",
              "           235-U COUNTING EFFICIENCY        2.0",
              "           249-CF COUNTING EFFICIENCY       1.7",
              "           MASS OF 235-U                    1.0",
              "           MASS OF 249-CF                   1.0",
              "           235-U FISSION CROSS SECTION      3.0",
              "          UNCERTAINTIES IN-",
              "           INSCATTERING CORRECTION         10.0",
              "           TRANSMISSION LOSS(1-T)          10.0"
            ]
          }
        ],
        "monitor": [
          {
            "x4_code": "(92-U-235(N,F),,SIG)",
            "free_txt": [
              " ENDF/B-V",
              "    ENDF/B-V WAS USED FOR THE CROSS SECTION."
            ]
          }
        ]
      }
    }
  }
}