{
  "entry": "F1188",
  "last_updated": "2022-10-17",
  "number_of_revisions": "2",
  "histories": [
    {
      "x4_code": "(20130311C)",
      "free_txt": []
    },
    {
      "x4_code": "(20220429A)",
      "free_txt": [
        " SD: Correction in Subent 002."
      ]
    }
  ],
  "bib_record": {
    "title": "Total yield measurements in Al-27(p,gamma)Si-28",
    "authors": [
      {
        "name": "P.B.Lyons"
      },
      {
        "name": "J.W.Toevs"
      },
      {
        "name": "D.G.Sargood"
      }
    ],
    "institutes": [
      {
        "x4_code": "(1USACAL)",
        "free_txt": ""
      },
      {
        "x4_code": "(3AULAML)",
        "free_txt": ""
      }
    ],
    "references": {
      "0": [
        {
          "x4_code": "(J,NP/A,130,1,1969)",
          "free_txt": [],
          "publication_year": "1969"
        }
      ]
    },
    "facilities": {
      "0": [
        {
          "x4_code": "(ACCEL,1USACAL)",
          "free_txt": [
            " 3 MeV electrostatic accelerator was",
            "used."
          ],
          "facility_type": "(ACCEL)",
          "institute": "(1USACAL)"
        }
      ]
    }
  },
  "data_tables": {
    "001": {
      "common": null
    },
    "002": {
      "reaction": {
        "0": {
          "x4_code": "(13-AL-27(P,G)14-SI-28,,SIG)",
          "0": {
            "code": [
              "13-AL-27",
              [
                "P,G"
              ],
              "14-SI-28,,SIG"
            ],
            "type": null,
            "target": "13-AL-27",
            "process": "P,G",
            "sf49": "14-SI-28,,SIG",
            "sf4": "14-SI-28",
            "sf5": null,
            "sf6": "SIG",
            "sf7": null,
            "sf8": null,
            "sf9": null
          },
          "type": null,
          "free_text": ""
        }
      },
      "common": {
        "heads": [
          "EN-ERR-DIG",
          "ERR-DIG"
        ],
        "units": [
          "KEV",
          "MICRO-B"
        ],
        "data": [
          [
            1.4
          ],
          [
            0.017
          ]
        ]
      },
      "data": {
        "heads": [
          "EN",
          "DATA-MAX"
        ],
        "units": [
          "KEV",
          "MICRO-B"
        ],
        "data": [
          [
            1421.0,
            1425.7,
            1430.9,
            1437.7,
            1443.0,
            1449.3,
            1455.0,
            1460.3,
            1467.1,
            1471.8,
            1477.6,
            1481.8,
            1488.1,
            1492.8,
            1499.6,
            1504.4,
            1509.1,
            1514.3,
            1518.5,
            1524.3,
            1527.5,
            1533.8,
            1542.7,
            1547.9,
            1556.8,
            1564.7,
            1571.0,
            1579.8,
            1585.6,
            1591.9,
            1596.6,
            1602.9,
            1606.5,
            1613.3,
            1618.5,
            1626.4,
            1632.1,
            1639.5,
            1646.3,
            1654.1,
            1662.0,
            1665.1,
            1673.5,
            1681.3,
            1688.7,
            1696.5,
            1704.4,
            1711.2,
            1718.0,
            1725.9,
            1733.2,
            1741.6,
            1748.4,
            1757.3,
            1767.3,
            1772.0,
            1783.5,
            1791.9,
            1799.7,
            1808.1,
            1812.8,
            1815.4,
            1823.8,
            1830.6,
            1836.8,
            1845.2,
            1850.4,
            1857.7,
            1862.4,
            1868.7,
            1876.0,
            1882.8,
            1887.5,
            1895.9,
            1902.1,
            1908.9,
            1916.8,
            1924.6,
            1929.8,
            1937.1,
            1943.9,
            1950.2,
            1957.5,
            1963.8,
            1968.5,
            1978.4,
            1985.2,
            1993.1,
            2000.4,
            2008.3,
            2015.1,
            2020.9,
            2027.7,
            2033.5,
            2040.4,
            2045.6,
            2050.9,
            2051.7,
            2054.8,
            2061.5,
            2067.6,
            2078.4,
            2087.1,
            2092.2,
            2101.4,
            2109.1,
            2118.3,
            2127.0,
            2137.2,
            2145.9,
            2153.1,
            2160.8,
            2168.4,
            2175.6,
            2183.7,
            2189.9,
            2197.5,
            2206.7,
            2214.4,
            2222.6,
            2229.3,
            2236.9,
            2242.6,
            2249.2,
            2256.4,
            2265.1,
            2273.3,
            2281.5,
            2287.2,
            2293.3,
            2299.5,
            2308.7,
            2317.9,
            2324.0,
            2332.8,
            2343.5,
            2350.1,
            2357.3,
            2361.4,
            2367.5,
            2373.6,
            2379.2,
            2384.3,
            2390.4,
            2394.5,
            2399.1,
            2404.2,
            2408.8,
            2417.0,
            2424.1,
            2431.3,
            2439.0,
            2446.1,
            2453.3,
            2464.1,
            2473.3,
            2482.5,
            2490.6,
            2500.9,
            2509.1,
            2517.8,
            2525.9,
            2535.7,
            2543.8,
            2552.0,
            2558.2,
            2567.9,
            2576.1,
            2585.8,
            2593.4,
            2602.1,
            2612.4
          ],
          [
            4.176,
            4.177,
            4.178,
            4.153,
            4.129,
            4.13,
            4.005,
            3.93,
            3.855,
            3.73,
            3.554,
            3.403,
            3.228,
            3.002,
            2.776,
            2.575,
            2.323,
            2.072,
            1.845,
            1.569,
            1.469,
            1.293,
            1.168,
            1.169,
            1.17,
            1.247,
            1.298,
            1.527,
            1.654,
            1.856,
            2.059,
            2.261,
            2.514,
            2.792,
            2.969,
            2.971,
            3.047,
            3.048,
            3.074,
            3.151,
            3.304,
            3.405,
            3.532,
            3.634,
            3.711,
            3.662,
            3.537,
            3.437,
            3.312,
            3.212,
            3.137,
            3.113,
            3.064,
            2.914,
            2.89,
            2.891,
            2.867,
            2.97,
            3.122,
            3.501,
            3.805,
            4.108,
            4.437,
            4.589,
            4.867,
            5.07,
            5.298,
            5.576,
            5.879,
            6.183,
            6.537,
            6.815,
            7.018,
            7.397,
            7.726,
            8.004,
            8.232,
            8.536,
            8.713,
            9.067,
            9.346,
            9.624,
            9.852,
            10.004,
            10.156,
            10.284,
            10.285,
            10.235,
            10.11,
            9.986,
            9.659,
            9.433,
            9.131,
            8.779,
            8.477,
            8.15,
            7.924,
            7.765,
            7.464,
            7.163,
            6.938,
            6.763,
            6.764,
            6.765,
            6.666,
            6.667,
            6.694,
            6.67,
            6.672,
            6.673,
            6.775,
            6.876,
            7.054,
            7.331,
            7.484,
            7.686,
            7.863,
            7.99,
            8.067,
            8.093,
            7.943,
            7.794,
            7.669,
            7.569,
            7.369,
            7.119,
            6.894,
            6.593,
            6.418,
            6.268,
            6.218,
            6.069,
            5.919,
            5.845,
            5.771,
            5.772,
            5.899,
            6.152,
            6.379,
            6.631,
            6.859,
            7.237,
            7.539,
            7.867,
            8.12,
            8.472,
            8.8,
            9.103,
            9.305,
            9.306,
            9.257,
            9.133,
            8.983,
            8.858,
            8.885,
            8.937,
            9.013,
            9.065,
            9.117,
            9.168,
            9.195,
            9.272,
            9.424,
            9.45,
            9.502,
            9.604,
            9.655,
            9.732,
            9.809,
            9.936,
            9.937,
            9.964
          ]
        ]
      }
    },
    "003": {
      "reaction": {
        "0": {
          "x4_code": "(13-AL-27(P,G)14-SI-28,,SIG,,REL)",
          "0": {
            "code": [
              "13-AL-27",
              [
                "P,G"
              ],
              "14-SI-28,,SIG,,REL"
            ],
            "type": null,
            "target": "13-AL-27",
            "process": "P,G",
            "sf49": "14-SI-28,,SIG,,REL",
            "sf4": "14-SI-28",
            "sf5": null,
            "sf6": "SIG",
            "sf7": null,
            "sf8": "REL",
            "sf9": null
          },
          "type": null,
          "free_text": ""
        }
      },
      "common": {
        "heads": [
          "EN-ERR",
          "DATA-ERR"
        ],
        "units": [
          "KEV",
          "ARB-UNITS"
        ],
        "data": [
          [
            1.1
          ],
          [
            0.0337
          ]
        ]
      },
      "data": {
        "heads": [
          "EN",
          "DATA"
        ],
        "units": [
          "KEV",
          "ARB-UNITS"
        ],
        "data": [
          [
            1419.4,
            1422.0,
            1424.1,
            1425.2,
            1428.3,
            1432.0,
            1432.5,
            1435.6,
            1437.2,
            1439.3,
            1442.9,
            1444.5,
            1447.1,
            1449.7,
            1450.2,
            1451.3,
            1451.3,
            1453.3,
            1453.3,
            1453.8,
            1453.8,
            1454.3,
            1455.3,
            1455.3,
            1455.3,
            1456.3,
            1458.4,
            1458.5,
            1459.0,
            1459.5,
            1459.5,
            1459.6,
            1459.6,
            1460.1,
            1460.6,
            1461.7,
            1461.7,
            1462.8,
            1462.8,
            1465.4,
            1467.0,
            1468.6,
            1472.8,
            1475.4,
            1476.9,
            1479.6,
            1483.7,
            1487.4,
            1490.5,
            1493.1,
            1496.3,
            1497.3,
            1498.3,
            1498.8,
            1499.3,
            1499.3,
            1499.3,
            1499.8,
            1500.3,
            1500.3,
            1500.3,
            1501.3,
            1502.4,
            1504.0,
            1504.5,
            1505.6,
            1507.1,
            1509.7,
            1510.2,
            1511.2,
            1511.2,
            1511.7,
            1512.1,
            1513.1,
            1513.6,
            1513.6,
            1514.1,
            1514.6,
            1515.1,
            1515.1,
            1515.4,
            1516.1,
            1516.6,
            1517.1,
            1519.2,
            1520.2,
            1521.3,
            1521.3,
            1521.3,
            1522.4,
            1523.4,
            1523.5,
            1524.5,
            1525.5,
            1526.1,
            1526.1,
            1526.1,
            1526.1,
            1526.1,
            1526.1,
            1526.7,
            1526.7,
            1527.2,
            1527.3,
            1527.3,
            1527.3,
            1527.3,
            1527.4,
            1527.4,
            1527.4,
            1528.5,
            1528.5,
            1529.1,
            1529.1,
            1529.6,
            1529.8,
            1530.2,
            1530.7,
            1531.3,
            1531.8,
            1531.9,
            1534.4,
            1536.0,
            1538.1,
            1540.8,
            1544.4,
            1549.1,
            1553.8,
            1559.6,
            1562.7,
            1563.8,
            1564.8,
            1564.8,
            1566.3,
            1567.9,
            1569.0,
            1570.0,
            1570.0,
            1571.1,
            1572.6,
            1574.2,
            1574.2,
            1575.2,
            1576.2,
            1576.2,
            1576.2,
            1577.2,
            1577.6,
            1577.6,
            1577.7,
            1578.2,
            1580.3,
            1580.7,
            1580.8,
            1580.8,
            1581.3,
            1581.4,
            1581.9,
            1581.9,
            1581.9,
            1581.9,
            1582.5,
            1583.5,
            1583.6,
            1583.6,
            1585.2,
            1585.7,
            1586.0,
            1586.0,
            1586.1,
            1586.1,
            1586.1,
            1586.1,
            1586.2,
            1586.2,
            1586.4,
            1586.5,
            1586.5,
            1586.5,
            1586.6,
            1586.6,
            1586.6,
            1587.0,
            1587.6,
            1587.6,
            1587.6,
            1587.7,
            1588.2,
            1589.8,
            1589.8,
            1590.3,
            1590.3,
            1590.9,
            1592.5,
            1592.5,
            1593.6,
            1593.7,
            1594.1,
            1594.5,
            1594.8,
            1594.8,
            1594.8,
            1594.8,
            1594.8,
            1594.9,
            1594.9,
            1595.1,
            1595.1,
            1595.2,
            1595.2,
            1595.2,
            1595.2,
            1595.2,
            1595.4,
            1595.5,
            1595.5,
            1595.5,
            1595.5,
            1595.6,
            1597.2,
            1597.2,
            1597.3,
            1597.7,
            1597.8,
            1598.8,
            1602.0,
            1606.1,
            1611.4,
            1619.2,
            1626.0,
            1632.3,
            1637.5,
            1641.2,
            1643.8,
            1644.8,
            1645.8,
            1646.9,
            1647.9,
            1650.5,
            1653.7,
            1655.2,
            1656.7,
            1656.8,
            1657.7,
            1657.7,
            1657.8,
            1658.2,
            1658.7,
            1659.1,
            1659.1,
            1659.2,
            1659.2,
            1659.5,
            1659.5,
            1659.6,
            1659.6,
            1659.6,
            1660.5,
            1660.5,
            1660.5,
            1660.5,
            1661.0,
            1661.0,
            1661.0,
            1661.4,
            1661.4,
            1661.4,
            1662.9,
            1662.9,
            1663.9,
            1663.9,
            1664.4,
            1665.5,
            1665.5,
            1665.6,
            1666.1,
            1666.6,
            1666.6,
            1666.7,
            1667.2,
            1667.7,
            1667.8,
            1667.8,
            1668.8,
            1669.4,
            1669.9,
            1669.9,
            1670.9,
            1670.9,
            1670.9,
            1671.0,
            1671.0,
            1671.2,
            1671.2,
            1671.2,
            1671.2,
            1671.3,
            1671.5,
            1671.5,
            1671.6,
            1671.6,
            1671.6,
            1671.6,
            1671.6,
            1671.7,
            1671.7,
            1671.8,
            1672.3,
            1672.4,
            1672.4,
            1672.9,
            1672.9,
            1673.5,
            1674.0,
            1674.6,
            1675.1,
            1676.2,
            1676.2,
            1677.2,
            1677.3,
            1677.8,
            1677.8,
            1679.3,
            1679.3,
            1680.9,
            1682.5,
            1682.5,
            1684.0,
            1685.1,
            1686.7,
            1688.3,
            1688.4,
            1688.4,
            1688.7,
            1690.3,
            1690.8,
            1692.9,
            1696.6,
            1700.3,
            1702.3,
            1702.9,
            1703.9,
            1704.9,
            1706.0,
            1707.0,
            1709.6,
            1710.7,
            1710.7,
            1711.2,
            1712.3,
            1715.9,
            1718.5,
            1720.1,
            1721.1,
            1721.6,
            1722.6,
            1723.1,
            1723.5,
            1723.6,
            1723.6,
            1723.6,
            1723.9,
            1723.9,
            1723.9,
            1724.0,
            1724.0,
            1724.0,
            1724.1,
            1724.1,
            1724.1,
            1724.1,
            1724.4,
            1724.4,
            1724.8,
            1724.8,
            1724.8,
            1724.9,
            1724.9,
            1725.0,
            1725.3,
            1725.8,
            1726.3,
            1727.9,
            1728.4,
            1729.5,
            1729.5,
            1730.6,
            1730.6,
            1731.1,
            1731.7,
            1732.2,
            1734.3,
            1735.6,
            1735.8,
            1736.3,
            1739.5,
            1743.1,
            1744.1,
            1745.2,
            1746.2,
            1746.7,
            1747.2,
            1747.7,
            1748.2,
            1748.2,
            1749.2,
            1749.2,
            1750.2,
            1750.2,
            1751.3,
            1752.8,
            1752.8,
            1753.9,
            1754.4,
            1754.5,
            1755.0,
            1755.0,
            1755.5,
            1756.1,
            1757.1,
            1757.2,
            1757.2,
            1758.2,
            1759.3,
            1759.3,
            1760.4,
            1762.5,
            1763.6,
            1766.2,
            1769.3,
            1773.0,
            1778.2,
            1785.0,
            1789.7,
            1793.4,
            1796.5,
            1798.6,
            1799.6,
            1799.6,
            1800.1,
            1801.1,
            1801.3,
            1801.4,
            1801.5,
            1801.8,
            1801.9,
            1801.9,
            1802.0,
            1802.0,
            1802.1,
            1802.1,
            1802.1,
            1802.3,
            1802.5,
            1802.8,
            1802.8,
            1802.8,
            1802.8,
            1802.9,
            1802.9,
            1802.9,
            1803.0,
            1804.2,
            1804.2,
            1804.2,
            1804.2,
            1804.6,
            1804.6,
            1804.7,
            1804.7,
            1805.2,
            1805.7,
            1806.8,
            1806.8,
            1806.8,
            1806.8,
            1806.8,
            1806.9,
            1806.9,
            1807.4,
            1808.5,
            1808.5,
            1808.5,
            1808.5,
            1809.6,
            1810.1,
            1810.6,
            1810.7,
            1812.0,
            1812.1,
            1812.1,
            1812.1,
            1812.6,
            1812.7,
            1812.7,
            1813.7,
            1814.8,
            1815.3,
            1816.9,
            1820.6,
            1824.8,
            1829.5,
            1832.6,
            1834.2,
            1837.8,
            1841.5,
            1842.0,
            1842.5,
            1843.5,
            1843.5,
            1845.5,
            1845.5,
            1845.5,
            1845.6,
            1845.6,
            1847.0,
            1847.6,
            1848.1,
            1848.7,
            1848.7,
            1848.7,
            1849.7,
            1849.8,
            1850.3,
            1850.3,
            1850.3,
            1851.4,
            1851.4,
            1852.4,
            1853.5,
            1853.5,
            1854.6,
            1857.2,
            1865.0,
            1871.3,
            1875.0,
            1880.7,
            1886.5,
            1891.7,
            1896.9,
            1899.5,
            1901.1,
            1903.1,
            1903.6,
            1903.6,
            1905.2,
            1909.4,
            1913.0,
            1913.4,
            1913.5,
            1913.5,
            1913.9,
            1913.9,
            1913.9,
            1914.0,
            1914.0,
            1914.3,
            1914.3,
            1914.3,
            1914.3,
            1914.4,
            1914.7,
            1914.7,
            1914.8,
            1914.8,
            1914.8,
            1914.8,
            1914.9,
            1915.2,
            1915.2,
            1915.2,
            1915.2,
            1915.4,
            1915.7,
            1917.3,
            1918.3,
            1918.4,
            1918.9,
            1919.9,
            1921.0,
            1921.5,
            1923.2,
            1924.1,
            1925.1,
            1927.2,
            1928.8,
            1932.0,
            1936.1,
            1942.9,
            1946.6,
            1951.3,
            1953.9,
            1959.1,
            1961.7,
            1962.7,
            1964.8,
            1966.9,
            1967.9,
            1970.0,
            1970.9,
            1970.9,
            1971.0,
            1971.0,
            1971.9,
            1972.0,
            1973.4,
            1973.4,
            1973.5,
            1973.5,
            1973.9,
            1973.9,
            1973.9,
            1974.4,
            1974.4,
            1974.9,
            1974.9,
            1975.3,
            1975.3,
            1975.3,
            1975.4,
            1976.4,
            1977.4,
            1978.5,
            1979.5,
            1980.6,
            1981.7,
            1982.7,
            1983.8,
            1984.7,
            1984.7,
            1986.3,
            1990.5,
            1992.0,
            1996.8,
            2000.4,
            2005.7,
            2008.3,
            2013.5,
            2019.3,
            2025.6,
            2027.7,
            2030.3,
            2032.3,
            2035.5,
            2036.5,
            2037.5,
            2039.1,
            2039.6,
            2040.6,
            2040.6,
            2042.1,
            2042.6,
            2044.1,
            2044.1,
            2044.2,
            2044.2,
            2045.2,
            2045.2,
            2047.3,
            2047.3,
            2047.8,
            2048.4,
            2050.0,
            2051.0,
            2051.5,
            2051.9,
            2051.9,
            2052.0,
            2052.0,
            2052.0,
            2052.3,
            2052.3,
            2052.4,
            2052.4,
            2053.3,
            2053.3,
            2053.4,
            2053.4,
            2053.6,
            2053.7,
            2053.7,
            2054.1,
            2054.2,
            2055.7,
            2055.7,
            2056.3,
            2056.3,
            2056.3,
            2057.9,
            2057.9,
            2057.9,
            2057.9,
            2059.0,
            2059.0,
            2059.6,
            2059.6,
            2060.6,
            2061.2,
            2061.7,
            2062.8,
            2063.0,
            2063.0,
            2063.0,
            2063.1,
            2063.1,
            2063.6,
            2064.2,
            2064.2,
            2064.7,
            2064.7,
            2065.8,
            2067.8,
            2068.9,
            2070.4,
            2070.4,
            2070.5,
            2071.5,
            2073.6,
            2075.2,
            2078.3,
            2080.9,
            2082.9,
            2083.4,
            2083.5,
            2085.0,
            2088.1,
            2089.1,
            2089.7,
            2091.2,
            2093.8,
            2096.4,
            2099.0,
            2101.0,
            2104.7,
            2107.7,
            2109.3,
            2110.3,
            2111.8,
            2112.3,
            2112.3,
            2112.8,
            2112.8,
            2113.3,
            2113.3,
            2113.7,
            2114.3,
            2114.8,
            2116.3,
            2118.4,
            2119.4,
            2120.5,
            2122.1,
            2122.6,
            2123.6,
            2124.2,
            2124.7,
            2125.2,
            2126.3,
            2126.8,
            2126.9,
            2127.9,
            2128.5,
            2130.0,
            2131.1,
            2132.2,
            2134.8,
            2136.8,
            2137.8,
            2138.3,
            2138.8,
            2139.4,
            2139.8,
            2140.3,
            2140.3,
            2140.8,
            2141.8,
            2143.9,
            2146.0,
            2147.0,
            2147.6,
            2148.6,
            2148.6,
            2148.7,
            2149.7,
            2150.8,
            2151.3,
            2152.9,
            2154.9,
            2158.6,
            2162.2,
            2164.8,
            2165.7,
            2165.8,
            2165.8,
            2166.7,
            2166.7,
            2166.7,
            2167.1,
            2167.1,
            2167.2,
            2167.2,
            2167.6,
            2167.6,
            2168.1,
            2168.1,
            2169.7,
            2170.7,
            2171.6,
            2171.6,
            2171.6,
            2171.7,
            2171.7,
            2171.7,
            2171.8,
            2172.1,
            2173.1,
            2174.1,
            2174.3,
            2174.4,
            2174.4,
            2174.4,
            2174.7,
            2174.7,
            2174.8,
            2174.8,
            2174.8,
            2174.8,
            2175.5,
            2176.0,
            2176.6,
            2177.1,
            2177.1,
            2177.7,
            2179.2,
            2180.2,
            2181.3,
            2181.7,
            2181.7,
            2182.2,
            2182.7,
            2183.7,
            2184.2,
            2184.8,
            2185.8,
            2185.8,
            2186.4,
            2187.4,
            2188.9,
            2188.9,
            2189.0,
            2189.3,
            2189.3,
            2189.4,
            2189.7,
            2189.8,
            2189.8,
            2189.8,
            2190.2,
            2190.2,
            2190.2,
            2190.2,
            2190.6,
            2190.6,
            2190.7,
            2191.2,
            2191.7,
            2192.3,
            2192.3,
            2192.3,
            2192.3,
            2192.3,
            2192.9,
            2192.9,
            2193.5,
            2193.5,
            2193.5,
            2194.0,
            2194.6,
            2196.1,
            2196.2,
            2198.7,
            2200.3,
            2202.8,
            2203.9,
            2204.9,
            2206.4,
            2206.4,
            2206.8,
            2206.8,
            2206.9,
            2207.3,
            2207.7,
            2207.8,
            2207.8,
            2208.2,
            2208.2,
            2208.6,
            2209.0,
            2209.1,
            2209.1,
            2209.1,
            2209.2,
            2209.2,
            2209.3,
            2209.4,
            2209.4,
            2209.8,
            2209.8,
            2210.3,
            2210.7,
            2210.8,
            2211.3,
            2211.6,
            2212.5,
            2212.5,
            2212.6,
            2212.7,
            2212.7,
            2212.9,
            2212.9,
            2212.9,
            2212.9,
            2213.0,
            2213.1,
            2213.3,
            2214.4,
            2214.4,
            2214.5,
            2214.5,
            2214.5,
            2214.5,
            2214.6,
            2214.6,
            2214.7,
            2214.7,
            2215.3,
            2215.3,
            2215.4,
            2217.0,
            2217.0,
            2217.6,
            2217.6,
            2217.6,
            2218.7,
            2218.7,
            2220.8,
            2221.3,
            2221.4,
            2221.4,
            2221.9,
            2222.5,
            2222.5,
            2222.5,
            2222.5,
            2222.6,
            2223.6,
            2223.6,
            2224.2,
            2224.7,
            2226.3,
            2230.4,
            2232.9,
            2235.5,
            2237.0,
            2238.6,
            2242.2,
            2245.2,
            2248.3,
            2249.9,
            2251.4,
            2252.5,
            2252.5,
            2254.0,
            2254.6,
            2256.1,
            2256.6,
            2258.2,
            2260.3,
            2261.3,
            2262.4,
            2263.9,
            2265.0,
            2266.0,
            2267.6,
            2268.6,
            2271.2,
            2273.3,
            2274.3,
            2277.4,
            2279.5,
            2281.6,
            2283.6,
            2285.7,
            2287.7,
            2290.8,
            2293.4,
            2294.4,
            2296.4,
            2298.0,
            2298.5,
            2298.5,
            2299.1,
            2300.6,
            2303.2,
            2305.2,
            2307.2,
            2307.3,
            2307.3,
            2308.2,
            2308.7,
            2308.7,
            2309.1,
            2309.2,
            2309.2,
            2309.6,
            2309.6,
            2309.8,
            2309.8,
            2309.9,
            2309.9,
            2310.0,
            2310.0,
            2310.1,
            2310.2,
            2310.2,
            2310.3,
            2310.6,
            2310.6,
            2310.8,
            2311.2,
            2311.2,
            2311.9,
            2313.0,
            2314.0,
            2315.1,
            2315.6,
            2316.3,
            2316.5,
            2316.5,
            2316.6,
            2316.6,
            2316.9,
            2316.9,
            2317.0,
            2317.3,
            2317.3,
            2317.3,
            2317.6,
            2317.6,
            2317.6,
            2317.7,
            2317.7,
            2317.8,
            2317.9,
            2317.9,
            2317.9,
            2317.9,
            2317.9,
            2318.0,
            2318.0,
            2318.1,
            2318.4,
            2318.9,
            2319.4,
            2319.5,
            2320.0,
            2320.5,
            2320.5,
            2321.1,
            2321.6,
            2321.6,
            2322.2,
            2322.2,
            2322.2,
            2322.7,
            2322.8,
            2322.8,
            2323.4,
            2323.4,
            2323.4,
            2323.5,
            2323.5,
            2323.6,
            2323.6,
            2323.6,
            2323.7,
            2323.7,
            2324.3,
            2324.8,
            2324.8,
            2324.9,
            2324.9,
            2325.4,
            2325.4,
            2326.5,
            2327.5,
            2328.5,
            2330.6,
            2331.6,
            2332.6,
            2333.6,
            2334.6,
            2335.6,
            2338.1,
            2338.6,
            2338.6,
            2339.2,
            2340.2,
            2341.2,
            2342.3,
            2344.3,
            2344.8,
            2347.4,
            2350.4,
            2352.4,
            2353.9,
            2357.0,
            2358.0,
            2359.5,
            2360.5,
            2361.0,
            2361.4,
            2361.5,
            2361.9,
            2362.4,
            2362.9,
            2363.3,
            2363.3,
            2363.4,
            2363.4,
            2364.3,
            2364.3,
            2364.8,
            2364.8,
            2365.8,
            2367.8,
            2367.8,
            2368.4,
            2368.9,
            2368.9,
            2370.5,
            2370.5,
            2370.5,
            2371.5,
            2372.5,
            2373.5,
            2373.5,
            2374.0,
            2374.5,
            2375.5,
            2375.5,
            2375.9,
            2376.0,
            2376.4,
            2376.4,
            2377.4,
            2377.4,
            2377.9,
            2378.9,
            2378.9,
            2379.9,
            2380.4,
            2380.9,
            2381.5,
            2381.5,
            2381.5,
            2382.0,
            2382.6,
            2383.1,
            2383.6,
            2383.7,
            2384.2,
            2384.2,
            2385.3,
            2385.3,
            2385.8,
            2385.8,
            2386.9,
            2386.9,
            2388.0,
            2389.5,
            2390.5,
            2391.6,
            2393.6,
            2395.7,
            2397.2,
            2399.2,
            2402.3,
            2402.8,
            2403.8,
            2404.8,
            2405.8,
            2407.8,
            2410.4,
            2411.4,
            2412.4,
            2412.9,
            2413.4,
            2415.0,
            2416.0,
            2418.1,
            2421.6,
            2424.2,
            2426.7,
            2429.8,
            2432.8,
            2435.9,
            2438.4,
            2440.4,
            2441.4,
            2443.4,
            2443.5,
            2444.4,
            2446.5,
            2449.0,
            2449.5,
            2451.6,
            2452.6,
            2453.1,
            2454.7,
            2456.7,
            2460.3,
            2462.8,
            2465.8,
            2468.9,
            2470.9,
            2472.4,
            2473.4,
            2473.4,
            2473.8,
            2473.8,
            2474.2,
            2474.2,
            2474.3,
            2474.7,
            2475.1,
            2475.2,
            2475.6,
            2475.6,
            2477.1,
            2477.1,
            2477.6,
            2479.1,
            2479.5,
            2479.5,
            2479.9,
            2479.9,
            2480.3,
            2480.3,
            2480.4,
            2480.4,
            2480.5,
            2480.7,
            2480.8,
            2480.8,
            2482.6,
            2482.7,
            2483.1,
            2483.1,
            2483.5,
            2484.0,
            2484.1,
            2484.3,
            2484.4,
            2484.5,
            2484.5,
            2484.9,
            2484.9,
            2485.8,
            2486.8,
            2487.9,
            2488.4,
            2488.5,
            2488.9,
            2489.5,
            2489.6,
            2489.6,
            2490.1,
            2490.1,
            2490.7,
            2490.7,
            2491.8,
            2492.3,
            2493.3,
            2493.4,
            2494.4,
            2498.0,
            2498.1,
            2498.1,
            2498.1,
            2498.2,
            2498.2,
            2498.2,
            2498.6,
            2498.6,
            2498.6,
            2498.8,
            2498.8,
            2498.8,
            2498.9,
            2499.4,
            2499.4,
            2500.0,
            2500.0,
            2500.5,
            2501.6,
            2501.6,
            2502.6,
            2502.6,
            2504.7,
            2505.7,
            2506.8,
            2508.8,
            2513.4,
            2516.4,
            2518.5,
            2518.9,
            2519.4,
            2519.9,
            2520.3,
            2520.4,
            2520.8,
            2520.8,
            2521.1,
            2521.2,
            2521.2,
            2521.2,
            2521.2,
            2521.3,
            2521.4,
            2521.6,
            2521.6,
            2521.6,
            2521.6,
            2521.6,
            2521.6,
            2522.0,
            2522.0,
            2522.0,
            2522.0,
            2522.0,
            2522.1,
            2522.5,
            2523.0,
            2523.4,
            2524.4,
            2525.4,
            2526.5,
            2526.5,
            2526.5,
            2526.5,
            2526.6,
            2526.6,
            2527.1,
            2528.1,
            2528.2,
            2528.2,
            2528.2,
            2528.7,
            2528.8,
            2529.2,
            2529.3,
            2530.3,
            2530.8,
            2531.9,
            2532.4,
            2535.4,
            2537.0,
            2539.0,
            2542.5,
            2544.5,
            2544.5,
            2545.1,
            2545.1,
            2545.1,
            2545.6,
            2545.6,
            2546.1,
            2546.2,
            2546.7,
            2546.7,
            2547.2,
            2547.2,
            2548.3,
            2548.3,
            2548.8,
            2549.3,
            2549.4,
            2549.9,
            2549.9,
            2550.4,
            2550.4,
            2551.0,
            2551.5,
            2552.5,
            2553.1,
            2554.6,
            2554.6,
            2556.1,
            2557.7,
            2560.2,
            2560.2,
            2560.2,
            2560.6,
            2560.7,
            2561.1,
            2561.1,
            2561.6,
            2561.6,
            2563.1,
            2564.2,
            2564.7,
            2565.2,
            2565.2,
            2565.7,
            2566.3,
            2566.3,
            2567.3,
            2567.3,
            2568.3,
            2569.4,
            2569.4,
            2570.4,
            2571.4,
            2574.0,
            2575.5,
            2576.5,
            2577.5,
            2579.0,
            2579.5,
            2580.5,
            2580.5,
            2582.5,
            2584.6,
            2586.6,
            2588.1,
            2590.2,
            2590.7,
            2592.7,
            2593.8,
            2594.8,
            2596.8,
            2597.9
          ],
          [
            0.6651,
            0.7168,
            0.6144,
            0.4862,
            0.5637,
            0.5899,
            0.5386,
            0.6161,
            0.7704,
            0.8734,
            0.8483,
            0.7972,
            0.6949,
            0.7979,
            0.9777,
            1.4143,
            1.1833,
            2.0051,
            2.3132,
            2.57,
            2.801,
            3.0322,
            3.3147,
            3.5201,
            3.6998,
            3.8283,
            3.7003,
            3.4949,
            3.3153,
            3.1099,
            2.9302,
            2.4425,
            2.6992,
            2.1858,
            1.9548,
            1.6983,
            1.4672,
            0.9539,
            1.185,
            0.7489,
            0.6465,
            0.5697,
            0.519,
            0.5194,
            0.5966,
            0.5456,
            0.5463,
            0.6752,
            0.7783,
            0.9071,
            1.0616,
            1.2928,
            1.4727,
            1.7295,
            2.4741,
            2.0119,
            2.243,
            2.7565,
            3.1674,
            3.4498,
            2.962,
            3.6296,
            3.4757,
            3.3219,
            3.1423,
            2.9884,
            2.9373,
            3.5282,
            4.016,
            4.6067,
            4.9147,
            5.9161,
            6.635,
            7.7904,
            8.612,
            8.8944,
            9.1769,
            9.4337,
            10.076,
            10.255,
            18.602,
            21.171,
            26.563,
            28.618,
            29.648,
            28.109,
            25.03,
            19.125,
            21.949,
            16.046,
            13.737,
            10.656,
            8.6041,
            10.488,
            9.384,
            10.026,
            8.8192,
            6.8094,
            9.7435,
            9.1273,
            7.9978,
            8.3572,
            5.2706,
            6.6372,
            6.3035,
            5.9954,
            7.3817,
            5.7387,
            5.4049,
            4.6604,
            4.2755,
            3.9418,
            3.6851,
            3.3257,
            2.8637,
            3.4774,
            2.5557,
            2.2477,
            1.914,
            1.5803,
            2.1968,
            1.2983,
            1.0162,
            0.7084,
            0.6061,
            0.4783,
            0.3763,
            0.377,
            0.3779,
            0.4553,
            0.7122,
            1.3028,
            0.9691,
            1.4828,
            1.2776,
            0.9954,
            0.8672,
            1.0726,
            0.6876,
            0.7906,
            0.9962,
            1.2529,
            1.5868,
            2.2544,
            1.9207,
            2.5368,
            3.2045,
            4.8733,
            4.6936,
            4.1288,
            3.6667,
            4.6683,
            5.1562,
            4.8738,
            4.1549,
            3.8983,
            2.6146,
            3.3592,
            3.6159,
            3.1282,
            2.8458,
            2.3581,
            2.1785,
            1.5367,
            1.8191,
            1.3829,
            1.6654,
            4.3354,
            3.976,
            2.8977,
            3.1288,
            3.4369,
            3.7193,
            2.3329,
            2.0249,
            6.9027,
            5.9272,
            4.8746,
            7.5446,
            13.831,
            16.911,
            10.493,
            5.5935,
            24.358,
            21.534,
            18.967,
            26.669,
            29.237,
            30.523,
            27.442,
            23.079,
            25.389,
            20.256,
            12.556,
            10.246,
            7.1665,
            7.3403,
            4.8568,
            10.447,
            5.569,
            5.9028,
            6.2878,
            6.5702,
            6.9553,
            5.1069,
            4.7988,
            9.7281,
            9.3943,
            8.7525,
            8.4188,
            8.0593,
            7.6743,
            9.0606,
            4.2084,
            3.3099,
            3.541,
            2.9762,
            2.6167,
            2.2316,
            1.7954,
            1.4104,
            1.7807,
            1.051,
            0.7686,
            0.5377,
            0.4355,
            0.3591,
            0.3599,
            0.3611,
            0.3877,
            0.3887,
            0.4921,
            0.6211,
            0.8011,
            1.0067,
            1.3406,
            1.5975,
            1.7773,
            1.675,
            1.7525,
            2.0351,
            2.6772,
            2.3434,
            3.7299,
            3.3448,
            2.9341,
            4.4232,
            4.7827,
            6.6312,
            6.3231,
            5.9637,
            5.5786,
            8.8648,
            8.5054,
            6.9136,
            7.5811,
            7.8892,
            10.097,
            10.328,
            9.8405,
            9.173,
            16.508,
            20.103,
            12.913,
            30.63,
            26.779,
            34.481,
            41.158,
            38.847,
            47.321,
            45.267,
            48.605,
            40.905,
            43.729,
            38.851,
            36.798,
            34.745,
            32.435,
            30.381,
            28.071,
            24.221,
            19.343,
            21.654,
            16.778,
            13.441,
            7.2802,
            10.104,
            10.15,
            9.8934,
            10.458,
            9.1489,
            8.9178,
            5.7087,
            6.2222,
            5.9141,
            5.4263,
            4.6305,
            9.4057,
            9.6111,
            7.0951,
            8.3274,
            7.4289,
            7.737,
            8.045,
            6.5303,
            6.7614,
            4.3225,
            4.0915,
            3.7835,
            3.5011,
            2.9363,
            3.1674,
            2.7054,
            2.4744,
            2.1921,
            1.9611,
            1.4991,
            1.7302,
            1.4479,
            2.9267,
            5.4948,
            8.3188,
            12.429,
            10.632,
            14.485,
            12.69,
            10.893,
            8.8416,
            6.5326,
            4.4811,
            3.7133,
            2.432,
            2.437,
            1.4753,
            1.1932,
            0.9622,
            0.7828,
            0.7063,
            0.8352,
            1.0152,
            1.2464,
            1.4519,
            1.7345,
            1.9143,
            2.1199,
            1.9919,
            1.5556,
            1.7867,
            1.376,
            1.2478,
            1.274,
            1.5568,
            1.7111,
            1.9936,
            2.2247,
            2.6357,
            2.9438,
            6.2043,
            3.3033,
            3.6884,
            3.9708,
            7.6934,
            7.2826,
            7.0002,
            6.6152,
            5.5369,
            5.922,
            4.6127,
            4.356,
            5.2032,
            4.9208,
            7.9245,
            8.2326,
            9.9528,
            10.184,
            9.5677,
            8.5664,
            8.8745,
            10.415,
            18.145,
            20.97,
            24.051,
            19.176,
            22.001,
            16.354,
            14.557,
            12.505,
            10.451,
            8.6549,
            6.6019,
            5.0623,
            3.2683,
            2.2438,
            1.7134,
            1.5081,
            1.4059,
            1.6375,
            1.8943,
            2.2539,
            2.6392,
            2.8446,
            3.2041,
            3.4096,
            3.7177,
            4.0258,
            4.4881,
            4.2313,
            4.9503,
            4.7706,
            5.1302,
            5.2331,
            4.8737,
            4.6428,
            4.4118,
            4.2064,
            4.0011,
            3.6931,
            3.4621,
            3.2568,
            2.9232,
            2.6151,
            2.3071,
            2.0505,
            1.4088,
            1.7426,
            1.0752,
            0.8958,
            0.7933,
            0.614,
            0.4604,
            0.461,
            0.4617,
            0.4884,
            0.5661,
            0.6951,
            0.8752,
            1.1066,
            1.7742,
            1.4918,
            2.1594,
            2.7757,
            8.09,
            6.8834,
            5.0093,
            7.7307,
            6.5241,
            7.3199,
            4.6756,
            4.3419,
            3.469,
            3.1609,
            3.9055,
            8.5009,
            5.4202,
            8.9374,
            9.3482,
            9.7333,
            11.329,
            22.111,
            18.774,
            14.666,
            6.0108,
            25.708,
            29.559,
            33.41,
            36.747,
            48.301,
            46.247,
            40.342,
            43.166,
            45.477,
            43.168,
            37.521,
            41.115,
            34.184,
            31.873,
            29.563,
            26.482,
            23.915,
            21.605,
            19.039,
            15.702,
            13.905,
            11.081,
            8.515,
            6.9754,
            5.4358,
            4.1522,
            3.3165,
            2.3666,
            2.7003,
            2.9827,
            2.1099,
            1.8789,
            1.5965,
            1.4169,
            1.1603,
            0.9294,
            0.7756,
            0.5964,
            0.52,
            0.5207,
            0.5212,
            0.5728,
            0.599,
            0.6765,
            0.9077,
            1.1645,
            1.6524,
            1.8578,
            3.6295,
            3.8862,
            3.4241,
            2.4999,
            2.1918,
            4.0148,
            3.7325,
            3.6042,
            3.1165,
            3.2962,
            2.9368,
            2.7059,
            2.4749,
            1.8845,
            2.2696,
            2.0642,
            1.7306,
            1.4995,
            1.32,
            1.0891,
            0.9094,
            0.7812,
            0.7046,
            0.7057,
            0.7067,
            0.7585,
            0.7851,
            0.94,
            1.0948,
            1.2753,
            1.481,
            1.738,
            1.995,
            2.4315,
            2.2262,
            2.5858,
            2.6635,
            2.741,
            4.5895,
            3.0235,
            3.3316,
            5.4111,
            5.1801,
            5.7449,
            3.9221,
            3.5884,
            7.1569,
            6.9259,
            7.3623,
            6.6178,
            6.3868,
            9.1081,
            8.8514,
            7.5935,
            7.8502,
            8.338,
            8.569,
            6.0531,
            9.9297,
            10.084,
            9.673,
            10.52,
            13.807,
            15.348,
            15.864,
            13.555,
            11.244,
            9.7046,
            7.9091,
            5.6001,
            4.0605,
            2.2673,
            1.7928,
            1.5105,
            1.3055,
            1.1003,
            1.0238,
            1.0244,
            1.0511,
            1.1543,
            1.3347,
            1.5405,
            1.6696,
            1.9267,
            2.1579,
            2.415,
            2.7234,
            3.1856,
            3.5454,
            5.0602,
            4.8291,
            4.0333,
            4.5467,
            5.7535,
            5.3941,
            6.832,
            7.1657,
            6.4726,
            6.1388,
            7.8333,
            8.1157,
            7.5252,
            8.8346,
            8.5009,
            9.0401,
            9.3225,
            13.64,
            10.144,
            9.9387,
            9.6306,
            15.438,
            15.953,
            14.671,
            12.105,
            9.5398,
            6.4606,
            4.6651,
            3.1278,
            2.7774,
            3.0854,
            2.4952,
            2.1621,
            2.0339,
            1.7779,
            1.5474,
            1.3428,
            1.2662,
            1.1386,
            1.1138,
            1.1147,
            1.3461,
            1.5518,
            1.7575,
            1.9377,
            2.2203,
            2.4515,
            2.7855,
            3.0936,
            3.5815,
            3.3762,
            3.9669,
            4.1466,
            5.2765,
            5.5332,
            4.7374,
            5.0711,
            5.7901,
            5.5847,
            5.0716,
            5.3796,
            4.7636,
            4.4299,
            4.1991,
            4.0452,
            4.2763,
            6.2532,
            6.5356,
            5.2263,
            5.483,
            4.9696,
            8.076,
            8.4098,
            7.3572,
            7.0235,
            9.6422,
            9.1544,
            10.053,
            16.31,
            38.659,
            33.524,
            36.348,
            43.794,
            40.713,
            44.823,
            42.513,
            37.636,
            35.839,
            39.946,
            30.193,
            27.626,
            24.802,
            21.978,
            16.588,
            19.155,
            12.225,
            14.535,
            10.943,
            7.0924,
            5.8095,
            4.2707,
            4.0909,
            3.8371,
            4.2939,
            3.4311,
            3.2027,
            2.949,
            2.7207,
            2.4669,
            2.2894,
            2.1117,
            2.0612,
            2.1632,
            2.2904,
            2.2146,
            2.0369,
            1.8847,
            1.5042,
            1.3778,
            1.1752,
            1.049,
            1.1765,
            1.4562,
            1.5832,
            1.304,
            1.7612,
            1.7112,
            1.5591,
            1.4578,
            1.3312,
            1.3826,
            1.4847,
            1.6122,
            1.7142,
            1.842,
            2.0204,
            2.2492,
            2.4017,
            2.5543,
            2.7321,
            2.9859,
            3.4682,
            3.2652,
            3.6967,
            3.9252,
            4.3567,
            4.1284,
            4.5346,
            4.6619,
            4.4847,
            4.3581,
            4.1807,
            4.0288,
            3.8766,
            3.75,
            3.5724,
            3.3695,
            3.2174,
            2.9892,
            2.7355,
            2.5325,
            2.3297,
            2.1522,
            1.8226,
            1.6198,
            1.4932,
            1.3923,
            1.4689,
            1.6468,
            1.85,
            2.3069,
            2.0533,
            2.5356,
            2.9418,
            2.7641,
            3.0942,
            3.1959,
            3.1456,
            3.2984,
            3.121,
            2.8673,
            2.3854,
            2.6392,
            2.2077,
            2.0303,
            1.8783,
            1.7008,
            1.625,
            1.5747,
            1.5756,
            1.5764,
            1.7801,
            2.5417,
            2.2372,
            1.9834,
            3.1764,
            2.8465,
            3.4302,
            4.2425,
            4.0902,
            3.8618,
            3.6334,
            4.3949,
            4.4964,
            4.6742,
            4.8264,
            4.776,
            4.3448,
            6.2739,
            6.0709,
            5.8171,
            5.2841,
            5.5125,
            5.0049,
            4.4974,
            6.5024,
            6.7311,
            6.5283,
            4.5741,
            4.3203,
            4.0919,
            3.762,
            5.9447,
            6.2239,
            4.8026,
            5.4371,
            5.5894,
            5.2341,
            3.4831,
            3.2294,
            3.0011,
            2.849,
            2.6459,
            2.443,
            2.2403,
            2.469,
            2.6723,
            3.2307,
            3.0023,
            3.4339,
            3.6117,
            3.8403,
            3.9927,
            3.7644,
            3.6378,
            3.5109,
            3.3841,
            3.2067,
            3.9685,
            3.6639,
            3.4101,
            5.136,
            4.933,
            4.6792,
            6.0752,
            5.6437,
            5.8467,
            5.4914,
            6.2783,
            6.456,
            6.7097,
            6.8874,
            7.4459,
            7.319,
            7.0906,
            7.1668,
            6.8624,
            6.4311,
            6.6341,
            6.228,
            6.0758,
            5.8474,
            5.3653,
            5.5937,
            4.8071,
            4.6802,
            4.9847,
            4.4773,
            4.2743,
            4.0717,
            3.894,
            4.0723,
            4.3518,
            4.5301,
            4.708,
            4.9874,
            5.2162,
            5.4954,
            6.3076,
            5.9777,
            5.7239,
            6.6884,
            7.5007,
            7.2215,
            6.9931,
            7.8053,
            8.0591,
            8.7952,
            9.9374,
            9.3283,
            9.5567,
            9.0745,
            8.567,
            8.2624,
            10.166,
            10.8,
            15.115,
            18.669,
            21.968,
            25.776,
            35.929,
            29.077,
            32.885,
            50.905,
            63.851,
            61.059,
            58.268,
            45.578,
            40.502,
            76.795,
            80.349,
            73.75,
            71.212,
            67.659,
            55.223,
            82.888,
            78.576,
            81.114,
            73.5,
            70.708,
            68.424,
            76.038,
            65.632,
            62.079,
            49.644,
            52.689,
            46.092,
            43.046,
            34.671,
            27.315,
            30.614,
            20.972,
            24.271,
            18.18,
            15.391,
            12.853,
            10.066,
            10.325,
            10.07,
            9.7641,
            9.5095,
            9.0001,
            8.7199,
            8.4396,
            9.2803,
            8.1594,
            7.9813,
            7.7011,
            7.421,
            7.2428,
            7.1412,
            7.0912,
            7.0918,
            7.1434,
            7.2966,
            7.195,
            7.1194,
            7.1202,
            7.019,
            6.8919,
            6.7904,
            6.6378,
            6.434,
            6.307,
            6.1033,
            5.8744,
            5.6961,
            5.4672,
            5.2384,
            5.0349,
            4.7549,
            4.5769,
            4.2969,
            4.0933,
            3.8389,
            3.6099,
            3.3812,
            3.2034,
            3.0253,
            2.8731,
            2.6443,
            2.5174,
            2.3905,
            2.3146,
            2.2386,
            2.2393,
            2.3673,
            2.4949,
            2.5718,
            2.4193,
            2.1647,
            2.0118,
            1.8336,
            1.7321,
            1.5798,
            1.5803,
            2.1412,
            1.912,
            1.6827,
            2.4217,
            2.702,
            2.9058,
            3.7212,
            3.4409,
            3.1607,
            4.2563,
            3.9506,
            7.4153,
            7.721,
            6.0142,
            6.5746,
            5.5047,
            5.7594,
            4.613,
            8.358,
            8.7147,
            8.0014,
            10.116,
            10.498,
            14.541,
            9.097,
            9.3263,
            11.997,
            10.471,
            8.1807,
            5.6355,
            4.1082,
            6.0599,
            4.7926,
            4.5898,
            4.1336,
            4.3617,
            5.3757,
            5.7052,
            5.0715,
            6.339,
            6.5671,
            6.8459,
            8.3161,
            8.0373,
            8.5949,
            7.7838,
            7.581,
            7.1502,
            21.06,
            23.091,
            18.78,
            10.369,
            9.7862,
            9.0259,
            9.2793,
            8.8485,
            10.014,
            21.32,
            18.026,
            16.252,
            14.733,
            11.186,
            13.467,
            9.4134,
            7.8942,
            6.3735,
            4.3474,
            8.3435,
            8.5982,
            8.0379,
            7.7067,
            7.4774,
            6.535,
            6.2802,
            6.8661,
            5.7197,
            6.0509,
            4.8536,
            4.5224,
            4.1912,
            3.5288,
            3.8855,
            3.1723,
            2.8412,
            2.5355,
            2.2298,
            1.7458,
            2.0516,
            1.5421,
            1.3385,
            1.1859,
            1.0588,
            1.0848,
            1.2379,
            1.3911,
            1.5951,
            1.7992,
            2.2071,
            2.2842,
            2.0041,
            1.8003,
            1.6475,
            1.4695,
            1.3169,
            1.2662,
            1.2158,
            1.165,
            1.1401,
            1.1664,
            1.2943,
            1.4476,
            1.5757,
            1.7288,
            1.8821,
            2.1371,
            2.3411,
            2.7743,
            2.545,
            3.0037,
            3.1822,
            3.4116,
            4.2524,
            4.0231,
            3.641,
            3.8448,
            4.6603,
            4.431,
            5.0171,
            4.8642,
            5.1957,
            5.2217,
            4.8905,
            4.7633,
            4.636,
            4.4831,
            4.1524,
            3.9485,
            3.8212,
            3.6941,
            3.6434,
            3.822,
            3.9493,
            4.1533,
            4.3572,
            4.9613,
            4.7651,
            5.3002,
            5.1474,
            5.6061,
            5.4532,
            5.8356,
            6.0394,
            6.2179,
            6.3455,
            6.4729,
            6.6005,
            6.4988,
            6.2442,
            5.8367,
            5.6583,
            5.48,
            5.2254,
            5.0472,
            4.8435,
            4.6398,
            4.3851,
            4.1814,
            3.9776,
            3.4174,
            3.6212,
            2.9844,
            3.1628,
            2.7809,
            2.5516,
            2.2461,
            2.0173,
            1.8647,
            1.763,
            1.6871,
            1.5857,
            1.5607,
            1.4593,
            1.4856,
            1.6895,
            1.8171,
            1.9193,
            2.047,
            2.1239,
            2.0991,
            1.9975,
            1.8958,
            1.794,
            1.6923,
            1.5653,
            1.4382,
            1.3877,
            1.3887,
            1.3384,
            1.339,
            1.3398,
            1.3406,
            1.3414,
            1.393,
            1.4954,
            1.6486,
            1.9039,
            1.751,
            2.0315,
            2.1085,
            2.0582,
            1.9309,
            1.8041,
            1.7534,
            1.6771,
            1.5756,
            1.4997,
            1.5006,
            1.6032,
            1.7313,
            1.9104,
            2.1148,
            2.268,
            2.574,
            2.8288,
            3.4913,
            3.1346,
            4.1793,
            4.485,
            3.7971,
            4.8927,
            5.275,
            5.0966,
            5.7592,
            5.5553,
            5.9634,
            6.1926,
            6.3711,
            6.7027,
            7.569,
            7.3652,
            8.5372,
            8.3079,
            9.3781,
            9.6073,
            8.8176,
            9.0469,
            7.7985,
            10.321,
            10.092,
            9.8877,
            16.338,
            13.026,
            18.377,
            24.491,
            27.805,
            30.863,
            20.673,
            50.735,
            44.366,
            34.431,
            38.252,
            41.311,
            47.68,
            53.287,
            55.582,
            53.547,
            46.925,
            44.632,
            50.747,
            41.068,
            34.444,
            37.246,
            29.86,
            32.407,
            27.313,
            24.256,
            21.711,
            18.656,
            15.856,
            13.054,
            11.018,
            10.384,
            10.028,
            9.7746,
            8.8609,
            8.2772,
            8.531,
            7.6935,
            9.5463,
            9.3178,
            9.0894,
            6.7291,
            6.5007,
            6.2469,
            5.9678,
            5.308,
            5.7141,
            5.0543,
            4.699,
            4.4199,
            4.1663,
            3.9125,
            3.3797,
            3.6589,
            3.1771,
            2.9742,
            2.7714,
            2.6195,
            2.6204,
            2.7986,
            3.0274,
            3.3067,
            3.6621,
            3.9921,
            5.9718,
            4.2967,
            6.2764,
            5.109,
            7.85,
            6.8095,
            7.0379,
            6.5303,
            7.5455,
            5.5659,
            4.703,
            8.3324,
            8.1039,
            8.51,
            8.7638,
            8.9415,
            9.1699,
            10.287,
            32.057,
            9.8552,
            9.6776,
            10.084,
            26.727,
            29.52,
            40.434,
            45.765,
            47.543,
            49.322,
            44.248,
            42.218,
            40.187,
            47.04,
            36.38,
            38.411,
            34.097,
            31.561,
            25.724,
            23.44,
            27.754,
            20.903,
            16.081,
            18.62,
            13.797,
            12.277,
            9.7396,
            8.7263,
            8.2197,
            8.9868,
            10.512,
            11.785,
            12.046,
            10.068,
            10.296,
            9.6884,
            9.5365,
            9.334,
            9.1316,
            8.9291,
            8.7267,
            8.5495,
            8.0433,
            8.2711,
            7.6384,
            7.8409,
            7.2335,
            7.436,
            7.0311,
            6.8034,
            6.6009,
            6.1706,
            6.3478,
            5.9682,
            5.7404,
            5.5633,
            5.3102,
            5.1079,
            4.9308,
            4.6273,
            4.7792,
            4.5011,
            4.476,
            4.9575,
            5.1347,
            4.6284,
            5.4892,
            5.312,
            5.793,
            5.9449,
            6.0716,
            5.6413,
            6.1731,
            5.9708,
            5.8443,
            5.6926,
            5.49,
            5.3636,
            5.0093,
            5.1865,
            4.6804,
            4.8576,
            4.554,
            4.4023,
            4.2757,
            4.1747,
            4.1242,
            4.2007,
            4.3528,
            4.5049,
            4.6823,
            4.8345,
            5.0118,
            5.2145,
            5.3664,
            5.4933,
            5.5443,
            5.5194,
            5.4691,
            5.2923,
            5.1658,
            5.0143,
            4.8626,
            4.7109,
            4.5847,
            4.433
          ]
        ]
      }
    }
  },
  "experimental_conditions": {
    "001": {
      "detector": {
        "0": [
          {
            "x4_code": "(NAICR)",
            "free_txt": [
              " Two unshielded Harshaw NaI crystal, 12.7 cm",
              "diameter * 10.2 cm long 12.7*10.2 cm and 10.2 cm",
              "diameter * 10.2 cm long 10.2*10.2 cm, were positioned",
              "on the two sides of the target chamber; their",
              "containers were separated by 13.5 mm."
            ]
          }
        ]
      },
      "facility": {
        "0": [
          {
            "x4_code": "(ACCEL,1USACAL)",
            "free_txt": [
              " 3 MeV electrostatic accelerator was",
              "used."
            ]
          }
        ]
      },
      "inc-source": {
        "0": [
          {
            "x4_code": null,
            "free_txt": [
              "Beam currents were ~ 0.3 mu-A."
            ]
          }
        ]
      },
      "method": {
        "0": [
          {
            "x4_code": "(BCINT,GSPEC)",
            "free_txt": []
          }
        ]
      },
      "sample": {
        "0": [
          {
            "x4_code": null,
            "free_txt": [
              "Targets were prepared from spectrographically analysed",
              "aluminium (>99.99%) evaporated in vacuum onto 0.25 mm",
              "tantalum blanks from directly-heated tantalum boats.",
              "Both the target blanks and boat were outgassed at",
              "temperatures above red heat in vacuum prior to the",
              "evaporation. The target used was of 7.5 keV thickness",
              "for 1 MeV protons."
            ]
          }
        ]
      }
    },
    "002": {
      "comment": {
        "0": [
          {
            "x4_code": null,
            "free_txt": [
              "Upper limit to nonresonant cross section is given."
            ]
          }
        ]
      },
      "status": {
        "0": [
          {
            "x4_code": "(CURVE)",
            "free_txt": [
              " Figs 6 from Nucl.Phys.,A130(1969)1"
            ]
          }
        ]
      }
    },
    "003": {
      "comment": {
        "0": [
          {
            "x4_code": null,
            "free_txt": [
              "Data are given as number of counts * 10**3/integration."
            ]
          }
        ]
      },
      "status": {
        "0": [
          {
            "x4_code": "(CURVE)",
            "free_txt": [
              " Fig.6"
            ]
          }
        ]
      }
    }
  }
}