{
  "entry": "14212",
  "last_updated": "2009-07-24",
  "number_of_revisions": "1",
  "histories": [
    {
      "x4_code": "(20081230C)",
      "free_txt": []
    }
  ],
  "bib_record": {
    "title": "Total neutron cross section of Phosphorus",
    "authors": [
      {
        "name": "K.F.Hansen"
      },
      {
        "name": "R.M.Kiehn"
      },
      {
        "name": "C.Goodman"
      }
    ],
    "institutes": [
      {
        "x4_code": "(1USAMIT)",
        "free_txt": []
      }
    ],
    "references": {
      "0": [
        {
          "x4_code": "(J,PR,92,652,1953)",
          "free_txt": [],
          "publication_year": "1953"
        }
      ]
    },
    "facilities": {
      "0": [
        {
          "x4_code": "(CCW)",
          "free_txt": []
        }
      ]
    }
  },
  "data_tables": {
    "001": {
      "extra_information": {
        "detector": {
          "0": [
            {
              "x4_code": null,
              "free_txt": [
                "Hydrogen recoil detector with adjustable bias",
                "was used for neutron counting."
              ]
            },
            {
              "x4_code": "(LONGC)",
              "free_txt": [
                " BF3 long counters placed at 15 deg and 90 deg",
                "with respect to the neutron beam were used for",
                "neutron beam monitoring."
              ]
            }
          ]
        },
        "err-analys": {
          "0": [
            {
              "x4_code": "(EN-ERR)",
              "free_txt": [
                "      Energy uncertainty in experiment"
              ]
            },
            {
              "x4_code": "(EN-ERR-DIG)",
              "free_txt": [
                "  Uncertainty in digitizing energy"
              ]
            },
            {
              "x4_code": "(ERR-DIG)",
              "free_txt": [
                "     Uncertainty in digitizing cross section"
              ]
            }
          ]
        },
        "facility": {
          "0": [
            {
              "x4_code": "(CCW)",
              "free_txt": []
            }
          ]
        },
        "inc-source": {
          "0": [
            {
              "x4_code": "(P-LI7)",
              "free_txt": []
            }
          ]
        },
        "method": {
          "0": [
            {
              "x4_code": "(TRN)",
              "free_txt": []
            }
          ]
        },
        "sample": {
          "0": [
            {
              "x4_code": null,
              "free_txt": [
                "Red phosphorus in steel cylinder with inner dimensions",
                "length of 5.08 cm, diameter of 2.54 cm and wall",
                "thickness of 0.127 mm (5 mils)"
              ]
            }
          ]
        }
      }
    },
    "002": {
      "reaction": {
        "0": {
          "x4_code": "(15-P-31(N,TOT),,SIG)",
          "0": {
            "code": [
              "15-P-31",
              [
                "N,TOT"
              ],
              ",,SIG"
            ],
            "type": null,
            "target": "15-P-31",
            "process": "N,TOT",
            "sf49": ",,SIG",
            "sf4": null,
            "sf5": null,
            "sf6": "SIG",
            "sf7": null,
            "sf8": null,
            "sf9": null
          },
          "type": null,
          "free_text": ""
        }
      },
      "extra_information": {
        "status": {
          "0": [
            {
              "x4_code": "(CURVE)",
              "free_txt": [
                " Data taken from fig. 2 of the reference"
              ]
            }
          ]
        }
      },
      "common": null,
      "data": {
        "heads": [
          "EN",
          "DATA"
        ],
        "units": [
          "KEV",
          "B"
        ],
        "data": [
          [
            116.31,
            118.05,
            119.8,
            120.67,
            125.04,
            126.78,
            129.4,
            131.15,
            132.89,
            135.51,
            139.01,
            140.75,
            142.5,
            143.37,
            145.99,
            148.61,
            150.36,
            153.85,
            155.59,
            158.21,
            160.83,
            160.84,
            161.71,
            164.32,
            164.33,
            164.33,
            167.82,
            171.31,
            173.06,
            173.06,
            173.93,
            176.55,
            178.29,
            179.17,
            182.66,
            183.53,
            183.53,
            184.41,
            185.86,
            186.5,
            189.06,
            191.62,
            191.62,
            192.9,
            194.82,
            196.1,
            196.11,
            198.02,
            199.94,
            201.86,
            205.06,
            205.06,
            205.7,
            210.18,
            210.18,
            210.18,
            214.02,
            214.02,
            218.5,
            222.98,
            222.98,
            227.46,
            228.1,
            231.3,
            231.31,
            231.94,
            235.14,
            235.78,
            236.42,
            239.62,
            244.73,
            244.74,
            244.75,
            245.38,
            249.86,
            250.5,
            254.34,
            254.35,
            258.82,
            259.46,
            262.66,
            263.3,
            263.3,
            265.22,
            267.13,
            267.14,
            276.74,
            277.38,
            280.58,
            281.22,
            285.06,
            285.06,
            290.18,
            290.18,
            294.66,
            294.66,
            299.14,
            307.46,
            308.1,
            312.58,
            313.22,
            317.06,
            317.07,
            317.7,
            317.71,
            318.98,
            320.9,
            321.54,
            321.54,
            323.46,
            324.1,
            326.01,
            326.02,
            326.66,
            327.3,
            329.86,
            330.5,
            331.14,
            332.42,
            334.34,
            334.98,
            334.98,
            339.45,
            339.46,
            341.38,
            343.94,
            343.94,
            344.58,
            345.86,
            348.41,
            348.42,
            348.43,
            352.26,
            354.18,
            354.19,
            354.82,
            358.02,
            359.3,
            361.86,
            364.42,
            365.7,
            366.98,
            366.98,
            369.54,
            370.81,
            370.82,
            370.83,
            373.38,
            374.02,
            375.29,
            379.77,
            383.61,
            388.09,
            393.21,
            397.04,
            397.05,
            400.89,
            401.53,
            405.36,
            405.37,
            406.01,
            409.85,
            411.12,
            411.13,
            411.14,
            413.05,
            414.97,
            415.61,
            416.25,
            417.53,
            419.44,
            419.45,
            421.38,
            423.3,
            423.94,
            424.58,
            426.5,
            428.4,
            428.41,
            428.42,
            430.97,
            432.89,
            433.53,
            434.17,
            438.01,
            438.65,
            441.21,
            444.41,
            446.32,
            446.33,
            448.89,
            450.8,
            450.81,
            450.82,
            453.37,
            454.65,
            455.93,
            457.85,
            461.05,
            461.05,
            462.34,
            464.9,
            465.53,
            466.17,
            468.72,
            468.73,
            471.29,
            473.85,
            473.86,
            474.49,
            477.68,
            477.69,
            481.53,
            482.17,
            486.65,
            487.93,
            491.13,
            495.61,
            495.61,
            499.45,
            500.09,
            504.56,
            504.57,
            509.05,
            509.69,
            512.89,
            518.01,
            518.02,
            522.48,
            522.49,
            525.69,
            526.97,
            532.09,
            533.37,
            535.29,
            535.93,
            537.21,
            538.49,
            539.77,
            539.78,
            540.41,
            542.33,
            544.25,
            544.88,
            544.89,
            546.81,
            547.45,
            547.45,
            551.29,
            554.49,
            556.41,
            557.68,
            557.69,
            558.33,
            560.25,
            560.89,
            562.17,
            562.81,
            566.65,
            567.29,
            571.13,
            571.77,
            576.25,
            576.25,
            580.09,
            580.73,
            585.21,
            587.76,
            587.77,
            593.53,
            598.65,
            602.49,
            606.97,
            608.25,
            609.53,
            611.45,
            612.09,
            615.93,
            618.49,
            621.68,
            621.69,
            621.7,
            623.61,
            625.52,
            625.53,
            630.01,
            634.49,
            635.13,
            638.97,
            644.09,
            647.93,
            652.4,
            652.41,
            660.73,
            663.92,
            663.93,
            667.13,
            667.77,
            668.41,
            669.05,
            670.33,
            670.97,
            672.89,
            674.81,
            675.44,
            675.45,
            677.37,
            679.29,
            681.84,
            681.85,
            683.13,
            688.89,
            693.37,
            693.38,
            697.2,
            697.21,
            701.69,
            705.53,
            710.64,
            711.28,
            715.12,
            719.6,
            719.61,
            724.07,
            724.08,
            728.56,
            733.04,
            733.05,
            737.52,
            738.8,
            742.0,
            750.96,
            750.97,
            754.8,
            756.08,
            759.92,
            764.4,
            764.47,
            768.24,
            768.88,
            774.0,
            777.84,
            778.48,
            782.32,
            787.44,
            788.08,
            791.28,
            792.56,
            793.84,
            796.4,
            796.44,
            799.6,
            800.24,
            803.44,
            804.72,
            809.2,
            809.22,
            813.04,
            814.32,
            818.16,
            818.8,
            823.28,
            823.28,
            827.76,
            828.4,
            832.86,
            832.88
          ],
          [
            2.44,
            2.15,
            2.31,
            2.23,
            2.29,
            1.93,
            1.24,
            2.88,
            2.29,
            2.86,
            2.64,
            2.33,
            2.52,
            4.04,
            6.17,
            4.53,
            3.79,
            2.88,
            2.68,
            1.93,
            1.68,
            2.01,
            2.35,
            2.01,
            2.68,
            3.04,
            4.32,
            4.71,
            3.27,
            3.57,
            2.58,
            2.39,
            2.13,
            2.7,
            2.94,
            2.48,
            2.7,
            3.86,
            4.5,
            4.68,
            3.87,
            3.39,
            3.48,
            3.3,
            3.04,
            2.83,
            3.12,
            2.58,
            2.26,
            2.28,
            2.9,
            2.99,
            3.58,
            2.46,
            3.06,
            3.94,
            1.9,
            2.46,
            2.73,
            2.44,
            2.77,
            2.33,
            2.44,
            2.45,
            2.73,
            2.64,
            4.03,
            4.33,
            4.1,
            4.63,
            3.12,
            3.19,
            3.3,
            2.58,
            1.67,
            2.03,
            2.16,
            2.58,
            3.9,
            3.77,
            2.45,
            2.09,
            3.09,
            2.31,
            3.0,
            3.22,
            2.6,
            2.54,
            2.54,
            2.62,
            1.74,
            2.1,
            1.6,
            1.76,
            2.23,
            2.51,
            1.96,
            1.7,
            1.77,
            1.64,
            1.89,
            2.05,
            2.68,
            2.09,
            2.22,
            2.55,
            2.67,
            1.9,
            2.07,
            2.52,
            2.67,
            1.99,
            3.14,
            1.86,
            3.04,
            2.33,
            2.78,
            1.93,
            2.87,
            2.42,
            2.49,
            3.48,
            2.77,
            3.27,
            3.9,
            2.9,
            3.07,
            3.91,
            4.99,
            5.57,
            5.7,
            5.83,
            5.85,
            4.99,
            4.17,
            4.05,
            4.26,
            4.33,
            4.86,
            4.89,
            3.07,
            3.23,
            3.3,
            3.26,
            3.13,
            3.62,
            3.77,
            3.26,
            3.04,
            2.33,
            2.18,
            2.33,
            2.23,
            2.78,
            2.09,
            2.28,
            2.74,
            2.83,
            2.52,
            2.6,
            2.29,
            1.8,
            2.06,
            2.16,
            2.23,
            3.1,
            2.9,
            4.14,
            3.13,
            3.59,
            3.85,
            4.46,
            7.05,
            6.21,
            6.35,
            7.18,
            5.53,
            4.21,
            4.29,
            4.47,
            3.58,
            3.46,
            3.07,
            3.58,
            2.71,
            2.25,
            3.48,
            3.26,
            1.67,
            2.16,
            2.65,
            3.09,
            3.9,
            5.31,
            5.54,
            4.56,
            4.78,
            4.36,
            4.57,
            4.68,
            6.64,
            6.4,
            5.17,
            5.38,
            4.2,
            5.33,
            4.16,
            3.07,
            3.38,
            3.32,
            3.38,
            3.58,
            2.6,
            2.78,
            2.9,
            2.78,
            2.94,
            3.03,
            3.12,
            2.58,
            2.48,
            2.15,
            2.46,
            1.99,
            2.1,
            1.89,
            2.77,
            3.03,
            3.81,
            3.94,
            3.77,
            3.48,
            2.52,
            1.89,
            1.66,
            1.96,
            1.42,
            1.77,
            2.25,
            2.54,
            2.6,
            4.62,
            5.02,
            4.07,
            4.46,
            5.63,
            4.69,
            4.82,
            5.53,
            4.86,
            4.53,
            4.14,
            4.86,
            4.21,
            4.04,
            4.14,
            4.33,
            4.42,
            3.97,
            3.66,
            3.49,
            3.84,
            2.9,
            3.07,
            3.32,
            3.22,
            3.49,
            3.29,
            3.38,
            3.35,
            2.7,
            2.96,
            2.87,
            2.64,
            3.12,
            3.19,
            3.36,
            2.9,
            2.32,
            1.48,
            2.25,
            2.42,
            1.79,
            1.84,
            2.06,
            2.54,
            2.36,
            2.25,
            2.99,
            2.81,
            2.83,
            2.36,
            2.46,
            2.16,
            1.47,
            1.54,
            2.06,
            3.1,
            2.18,
            3.69,
            3.39,
            3.79,
            3.48,
            3.06,
            2.99,
            3.43,
            2.88,
            2.46,
            2.52,
            2.77,
            2.81,
            2.68,
            2.74,
            2.87,
            2.45,
            2.55,
            2.77,
            3.0,
            2.9,
            2.67,
            2.42,
            2.0,
            2.23,
            1.9,
            2.1,
            2.6,
            2.33,
            2.46,
            2.51,
            2.91,
            3.23,
            2.39,
            2.77,
            3.48,
            3.75,
            3.92,
            3.51,
            3.81,
            2.75,
            2.88,
            2.68,
            2.64,
            2.0,
            2.18,
            3.06,
            3.36,
            2.7,
            2.62,
            2.26,
            2.6,
            2.91,
            2.48,
            2.29,
            2.32,
            2.51,
            2.2,
            2.38,
            3.25,
            3.39,
            2.09,
            1.97,
            2.28,
            2.55,
            2.29,
            2.6,
            2.51,
            2.58
          ]
        ]
      }
    }
  }
}