{
  "entry": "10682",
  "last_updated": "2015-03-11",
  "number_of_revisions": "5",
  "histories": [
    {
      "x4_code": "(19800825C)",
      "free_txt": []
    },
    {
      "x4_code": "(20080925A)",
      "free_txt": [
        " formats updated; BIB updates."
      ]
    },
    {
      "x4_code": "(20141003A)",
      "free_txt": [
        " BP: Corrected data entry,",
        "           digitized Figs. 2-8."
      ]
    }
  ],
  "bib_record": {
    "title": "High-Resolution Fast-Neutron Gamma-Ray Production Cross Sections for Iron up to 2100-keV",
    "authors": [
      {
        "name": "W.E.Kinney"
      },
      {
        "name": "F.G.Perey"
      }
    ],
    "institutes": [
      {
        "x4_code": "(1USAORL)",
        "free_txt": []
      }
    ],
    "references": {
      "0": [
        {
          "x4_code": "(J,NSE,63,418,197708)",
          "free_txt": [],
          "publication_year": "1977"
        }
      ]
    },
    "facilities": {
      "0": [
        {
          "x4_code": "(LINAC,1USAORL)",
          "free_txt": [
            " ORELA."
          ],
          "facility_type": "(LINAC)",
          "institute": "(1USAORL)"
        }
      ]
    }
  },
  "data_tables": {
    "001": {
      "common": {
        "heads": [
          "E-NRM",
          "EN-RSL"
        ],
        "units": [
          "KEV",
          "NSEC/M"
        ],
        "data": [
          [
            477.0
          ],
          [
            0.1
          ]
        ]
      }
    },
    "002": {
      "reaction": {
        "0": {
          "x4_code": "(26-FE-0(N,INL)26-FE-0,PAR,DA,G)",
          "0": {
            "code": [
              "26-FE-0",
              [
                "N,INL"
              ],
              "26-FE-0,PAR,DA,G"
            ],
            "type": null,
            "target": "26-FE-0",
            "process": "N,INL",
            "sf49": "26-FE-0,PAR,DA,G",
            "sf4": "26-FE-0",
            "sf5": "PAR",
            "sf6": "DA",
            "sf7": "G",
            "sf8": null,
            "sf9": null
          },
          "type": null,
          "free_text": ""
        }
      },
      "common": {
        "heads": [
          "ANG",
          "E"
        ],
        "units": [
          "ADEG",
          "KEV"
        ],
        "data": [
          [
            125.0
          ],
          [
            846.0
          ]
        ]
      },
      "data": {
        "heads": [
          "EN",
          "DATA"
        ],
        "units": [
          "KEV",
          "MB/SR"
        ],
        "data": [
          [
            851.297,
            858.304,
            860.418,
            861.439,
            861.466,
            862.484,
            862.994,
            864.553,
            866.141,
            866.65,
            868.239,
            868.743,
            869.238,
            870.257,
            870.768,
            870.826,
            872.891,
            875.107,
            876.255,
            876.311,
            879.048,
            880.164,
            882.91,
            883.326,
            884.375,
            885.517,
            888.64,
            888.685,
            888.714,
            890.798,
            891.918,
            892.554,
            893.214,
            893.311,
            896.985,
            899.01,
            899.614,
            900.046,
            901.052,
            902.627,
            904.286,
            904.87,
            905.469,
            906.06,
            908.806,
            910.912,
            912.485,
            913.51,
            915.614,
            917.816,
            918.51,
            918.956,
            921.855,
            922.817,
            923.277,
            924.814,
            926.382,
            927.503,
            930.238,
            931.156,
            931.643,
            931.784,
            934.294,
            936.485,
            936.542,
            937.684,
            938.306,
            938.918,
            943.167,
            944.196,
            945.229,
            946.806,
            950.093,
            950.144,
            950.299,
            951.29,
            951.47,
            953.681,
            954.6,
            956.698,
            956.832,
            958.264,
            959.277,
            961.924,
            963.605,
            963.649,
            965.845,
            967.431,
            967.933,
            970.034,
            970.06,
            971.095,
            974.346,
            978.674,
            979.731,
            980.229,
            980.738,
            982.874,
            984.514,
            984.559,
            985.138,
            987.789,
            987.81,
            989.394,
            989.413,
            991.051,
            991.078,
            993.753,
            994.809,
            995.316,
            995.809,
            996.316,
            997.914,
            1000.045,
            1003.837,
            1004.399,
            1004.424,
            1004.987,
            1008.808,
            1009.906,
            1012.081,
            1014.752,
            1015.28,
            1016.912,
            1017.503,
            1018.015,
            1018.596,
            1020.777,
            1023.433,
            1025.018,
            1026.119,
            1027.218,
            1027.241,
            1028.802,
            1028.829,
            1029.852,
            1032.053,
            1032.571,
            1033.167,
            1035.897,
            1036.394,
            1039.052,
            1040.627,
            1041.671,
            1043.777,
            1044.884,
            1045.456,
            1047.64,
            1052.522,
            1054.094,
            1055.109,
            1057.291,
            1057.85,
            1058.954,
            1062.169,
            1062.684,
            1064.279,
            1064.792,
            1066.398,
            1069.127,
            1069.698,
            1070.266,
            1072.446,
            1074.511,
            1074.58,
            1075.075,
            1075.566,
            1076.07,
            1077.662,
            1080.931,
            1080.954,
            1083.684,
            1084.253,
            1085.364,
            1085.934,
            1089.755,
            1092.949,
            1093.986,
            1094.48,
            1094.967,
            1095.531,
            1098.188,
            1099.282,
            1101.457,
            1104.715,
            1105.809,
            1107.986,
            1112.812,
            1117.144,
            1118.203,
            1120.341,
            1120.857,
            1122.458,
            1124.047,
            1126.218,
            1129.441,
            1132.155,
            1132.18,
            1133.294,
            1137.046,
            1137.56,
            1142.411,
            1142.932,
            1145.065,
            1147.789,
            1148.896,
            1150.001,
            1151.104,
            1153.823,
            1157.092,
            1159.748,
            1162.407,
            1165.601,
            1166.163,
            1168.805,
            1172.552,
            1175.8,
            1177.974,
            1180.678,
            1184.433,
            1187.144,
            1189.863,
            1190.956,
            1192.052,
            1192.074,
            1192.638,
            1195.369,
            1196.961,
            1198.01,
            1199.065,
            1200.111,
            1203.368,
            1207.122,
            1210.862,
            1213.595,
            1214.159,
            1214.727,
            1218.531,
            1220.617,
            1220.65,
            1222.198,
            1224.316,
            1225.368,
            1228.046,
            1230.235,
            1232.41,
            1232.981,
            1237.265,
            1241.599,
            1243.774,
            1246.487,
            1247.037,
            1249.711,
            1252.394,
            1254.566,
            1255.688,
            1256.194,
            1256.215,
            1258.394,
            1258.952,
            1262.167,
            1264.303,
            1265.355,
            1265.877,
            1267.474,
            1271.257,
            1272.351,
            1273.447,
            1276.659,
            1279.873,
            1282.586,
            1283.68,
            1285.31,
            1285.866,
            1289.133,
            1289.632,
            1291.219,
            1292.274,
            1295.471,
            1298.184,
            1299.811,
            1301.945,
            1304.629,
            1306.266,
            1307.365,
            1307.388,
            1309.619,
            1312.833,
            1315.501,
            1316.557,
            1319.231,
            1323.015,
            1326.267,
            1327.369,
            1328.944,
            1329.995,
            1335.35,
            1338.076,
            1339.712,
            1340.816,
            1340.834,
            1344.632,
            1345.146,
            1345.627,
            1346.669,
            1346.727,
            1349.339,
            1353.131,
            1359.077,
            1363.969,
            1368.241,
            1372.004,
            1375.223,
            1376.289,
            1380.046,
            1384.876,
            1388.135,
            1389.23,
            1390.329,
            1390.888,
            1391.439,
            1393.07,
            1394.167,
            1396.336,
            1397.926,
            1402.807,
            1405.311,
            1407.219,
            1407.312,
            1409.901,
            1412.257,
            1414.031,
            1418.381,
            1420.312,
            1422.844,
            1423.497,
            1427.258,
            1430.867,
            1433.183,
            1433.906,
            1436.169,
            1440.552,
            1440.62,
            1444.388,
            1446.18,
            1446.74,
            1449.122,
            1452.775,
            1452.852,
            1456.627,
            1458.401,
            1462.011,
            1463.195,
            1466.303,
            1468.044,
            1469.83,
            1471.126,
            1471.795,
            1473.094,
            1473.785,
            1475.68,
            1478.222,
            1481.213,
            1482.989,
            1484.769,
            1487.786,
            1493.29,
            1496.398,
            1498.317,
            1499.639,
            1500.205,
            1501.544,
            1504.72,
            1506.503,
            1508.272,
            1508.819,
            1509.39,
            1509.94,
            1511.091,
            1513.481,
            1518.959,
            1520.868,
            1522.792,
            1522.853,
            1525.221,
            1528.959,
            1530.842,
            1533.969,
            1537.734,
            1540.236,
            1541.401,
            1543.791,
            1544.968,
            1548.635,
            1551.785,
            1551.839,
            1553.725,
            1557.347,
            1562.854,
            1564.658,
            1565.21,
            1567.625,
            1569.535,
            1570.213,
            1570.279,
            1571.566,
            1572.245,
            1574.789,
            1574.855,
            1578.461,
            1579.024,
            1581.437,
            1583.861,
            1585.745,
            1589.387,
            1594.9,
            1596.681,
            1600.956,
            1603.474,
            1604.745,
            1606.074,
            1606.631,
            1609.189,
            1610.972,
            1612.692,
            1612.748,
            1613.249,
            1615.046,
            1618.704,
            1619.977,
            1621.898,
            1623.824,
            1625.734,
            1629.467,
            1631.889,
            1633.061,
            1636.068,
            1637.964,
            1639.244,
            1640.517,
            1641.186,
            1641.252,
            1643.164,
            1646.305,
            1647.442,
            1647.989,
            1649.772,
            1651.544,
            1652.718,
            1653.909,
            1654.476,
            1655.051,
            1655.617,
            1657.415,
            1660.476,
            1660.515,
            1663.034,
            1663.715,
            1667.482,
            1669.345,
            1672.369,
            1674.175,
            1675.458,
            1677.346,
            1678.626,
            1680.543,
            1681.229,
            1682.507,
            1686.253,
            1688.678,
            1691.086,
            1693.498,
            1695.909,
            1697.095,
            1697.661,
            1700.699,
            1703.809,
            1704.459,
            1705.733,
            1707.003,
            1708.284,
            1709.564,
            1713.86,
            1716.383,
            1721.262,
            1723.165,
            1726.216,
            1728.11,
            1730.038,
            1731.784,
            1732.933,
            1733.506,
            1736.543,
            1738.359,
            1742.094,
            1743.393,
            1745.899,
            1747.572,
            1747.669,
            1748.759,
            1749.29,
            1753.65,
            1756.673,
            1758.583,
            1762.865,
            1767.199,
            1768.475,
            1770.373,
            1771.033,
            1771.094,
            1772.411,
            1774.815,
            1775.985,
            1776.555,
            1778.97,
            1780.765,
            1782.677,
            1785.834,
            1787.744,
            1790.269,
            1792.176,
            1794.673,
            1795.371,
            1799.16,
            1800.861,
            1800.913,
            1802.616,
            1803.278,
            1805.635,
            1809.828,
            1811.759,
            1818.522,
            1819.187,
            1821.737,
            1824.073,
            1825.247,
            1827.155,
            1829.079,
            1833.284,
            1836.434,
            1838.233,
            1841.39,
            1842.523,
            1844.926,
            1846.101,
            1849.737,
            1854.574,
            1858.328,
            1859.603,
            1860.294,
            1864.51,
            1865.662,
            1868.627,
            1870.985,
            1872.738,
            1877.579,
            1880.746,
            1882.035,
            1883.36,
            1884.081,
            1885.993,
            1887.926,
            1889.256,
            1891.177,
            1893.716,
            1898.563,
            1899.679,
            1899.74,
            1902.08,
            1905.089,
            1907.63,
            1913.123,
            1916.263,
            1919.912,
            1921.096,
            1923.637,
            1925.554,
            1927.967,
            1929.141,
            1929.71,
            1931.509,
            1934.509,
            1936.29,
            1937.465,
            1939.344,
            1943.023,
            1944.937,
            1944.998,
            1946.896,
            1948.195,
            1950.107,
            1953.14,
            1955.555,
            1957.284,
            1957.342,
            1959.086,
            1962.842,
            1965.268,
            1970.227,
            1972.677,
            1973.974,
            1977.714,
            1979.01,
            1982.141,
            1982.698,
            1985.726,
            1987.528,
            1991.162,
            1994.193,
            1997.355,
            2001.026,
            2004.111,
            2006.006,
            2007.174,
            2009.612,
            2012.044,
            2014.487,
            2016.31,
            2017.611,
            2020.113,
            2021.997,
            2023.88,
            2026.878,
            2026.913,
            2029.92,
            2031.745,
            2035.408,
            2037.823,
            2039.643,
            2041.464,
            2044.6,
            2047.155,
            2047.722,
            2050.291,
            2050.348,
            2053.484,
            2055.283,
            2057.679,
            2059.481,
            2062.509,
            2066.258,
            2069.258,
            2074.248,
            2077.346,
            2080.999,
            2087.748,
            2088.424,
            2092.169,
            2093.971,
            2099.554
          ],
          [
            1.269,
            1.269,
            1.754,
            2.721,
            2.199,
            3.501,
            4.362,
            6.812,
            8.541,
            10.77,
            13.33,
            17.49,
            24.48,
            38.48,
            47.93,
            30.69,
            61.67,
            38.73,
            22.51,
            14.69,
            10.57,
            7.906,
            5.331,
            13.69,
            17.16,
            10.5,
            24.65,
            17.39,
            13.87,
            24.17,
            17.5,
            8.273,
            3.263,
            1.542,
            3.284,
            9.058,
            5.472,
            12.51,
            21.66,
            29.93,
            21.67,
            15.28,
            9.663,
            6.474,
            4.337,
            6.391,
            9.002,
            13.52,
            20.05,
            14.06,
            4.255,
            8.716,
            1.813,
            4.423,
            8.119,
            15.0,
            21.96,
            15.69,
            11.51,
            39.53,
            59.01,
            19.93,
            83.11,
            62.95,
            40.83,
            24.83,
            13.1,
            7.467,
            12.12,
            17.63,
            24.99,
            33.86,
            22.4,
            15.2,
            4.601,
            8.95,
            2.246,
            1.466,
            4.972,
            7.765,
            2.78,
            11.51,
            18.94,
            27.55,
            16.75,
            11.89,
            8.724,
            11.15,
            14.72,
            22.55,
            18.46,
            25.66,
            22.55,
            19.82,
            23.29,
            31.97,
            40.34,
            46.81,
            39.32,
            27.74,
            20.34,
            28.65,
            24.38,
            31.36,
            27.03,
            23.0,
            18.58,
            21.7,
            25.67,
            33.03,
            46.82,
            59.85,
            69.44,
            84.3,
            72.19,
            60.64,
            49.95,
            41.42,
            28.66,
            24.54,
            21.15,
            25.35,
            27.75,
            24.55,
            16.44,
            20.22,
            14.64,
            12.06,
            16.34,
            20.89,
            17.43,
            14.83,
            12.38,
            19.08,
            15.52,
            23.62,
            16.77,
            19.71,
            12.7,
            9.687,
            13.38,
            17.78,
            24.56,
            31.8,
            46.56,
            37.38,
            28.87,
            23.17,
            18.25,
            25.87,
            42.0,
            34.37,
            29.44,
            23.94,
            27.78,
            33.5,
            39.38,
            48.11,
            52.66,
            40.41,
            31.61,
            25.21,
            20.91,
            42.01,
            24.73,
            34.83,
            50.34,
            66.04,
            79.65,
            60.72,
            50.67,
            38.63,
            30.81,
            23.8,
            18.74,
            12.88,
            17.57,
            24.11,
            34.18,
            50.69,
            42.03,
            56.21,
            49.4,
            42.58,
            35.53,
            31.43,
            26.57,
            32.26,
            27.45,
            31.85,
            36.48,
            43.71,
            49.42,
            61.17,
            54.45,
            58.85,
            51.05,
            42.06,
            31.86,
            37.2,
            45.16,
            45.16,
            51.73,
            61.59,
            49.44,
            39.44,
            32.07,
            26.25,
            21.77,
            16.59,
            22.48,
            29.49,
            40.22,
            33.57,
            50.43,
            61.62,
            55.21,
            47.9,
            44.9,
            51.1,
            45.2,
            37.48,
            33.36,
            29.13,
            24.63,
            20.16,
            15.27,
            18.53,
            23.09,
            27.67,
            35.37,
            29.52,
            34.03,
            43.78,
            32.74,
            26.97,
            21.65,
            16.94,
            29.15,
            22.51,
            38.24,
            51.14,
            62.48,
            71.1,
            55.27,
            47.64,
            37.27,
            46.13,
            38.75,
            33.4,
            28.97,
            26.64,
            31.31,
            34.28,
            30.32,
            21.53,
            27.7,
            23.57,
            19.79,
            17.06,
            19.67,
            22.97,
            28.06,
            31.93,
            37.29,
            34.51,
            30.53,
            26.48,
            31.33,
            36.58,
            31.74,
            28.07,
            25.32,
            22.25,
            17.18,
            23.43,
            29.38,
            35.2,
            46.48,
            40.58,
            37.31,
            44.14,
            48.32,
            41.38,
            34.98,
            29.38,
            16.43,
            19.18,
            23.59,
            27.91,
            32.59,
            29.97,
            26.0,
            21.56,
            29.97,
            36.86,
            48.04,
            37.83,
            32.6,
            26.69,
            23.15,
            19.07,
            23.15,
            36.16,
            47.74,
            30.57,
            57.95,
            49.63,
            43.62,
            31.58,
            43.07,
            46.24,
            51.95,
            56.87,
            64.3,
            75.09,
            61.87,
            54.37,
            45.96,
            39.62,
            35.96,
            32.22,
            27.95,
            25.2,
            31.0,
            69.82,
            65.48,
            59.67,
            51.74,
            42.67,
            50.11,
            55.97,
            52.5,
            46.16,
            41.47,
            39.18,
            35.33,
            40.17,
            50.13,
            42.54,
            57.62,
            51.41,
            46.35,
            41.35,
            44.89,
            48.91,
            55.22,
            58.68,
            52.16,
            46.03,
            51.43,
            58.28,
            62.59,
            59.76,
            70.17,
            77.0,
            69.68,
            64.19,
            57.87,
            51.62,
            47.91,
            42.43,
            48.43,
            53.9,
            59.57,
            65.36,
            68.96,
            65.85,
            58.95,
            51.29,
            55.28,
            46.91,
            40.39,
            44.47,
            50.03,
            55.49,
            59.39,
            65.63,
            74.1,
            82.78,
            90.84,
            82.49,
            73.33,
            66.83,
            77.09,
            72.04,
            68.04,
            63.13,
            56.52,
            53.2,
            58.8,
            65.68,
            71.3,
            74.16,
            66.4,
            61.16,
            57.57,
            64.08,
            67.37,
            71.84,
            79.11,
            84.97,
            77.17,
            70.08,
            63.41,
            58.21,
            52.86,
            46.66,
            42.21,
            48.18,
            52.12,
            56.18,
            59.48,
            56.19,
            60.78,
            63.22,
            69.87,
            73.46,
            67.43,
            63.46,
            54.63,
            59.72,
            51.59,
            56.82,
            68.91,
            63.25,
            75.33,
            81.2,
            85.67,
            80.35,
            71.68,
            63.49,
            57.65,
            54.27,
            57.66,
            63.05,
            70.18,
            65.12,
            60.42,
            56.66,
            52.19,
            47.22,
            42.73,
            38.81,
            44.77,
            49.65,
            54.68,
            61.3,
            66.78,
            70.96,
            76.49,
            81.28,
            87.6,
            94.42,
            96.82,
            91.12,
            83.64,
            75.69,
            67.53,
            65.86,
            71.5,
            75.98,
            70.24,
            65.87,
            61.11,
            54.91,
            49.34,
            45.93,
            42.32,
            44.81,
            48.65,
            52.44,
            56.73,
            60.7,
            65.44,
            69.53,
            66.14,
            62.7,
            58.8,
            55.34,
            51.34,
            47.63,
            48.5,
            44.2,
            47.31,
            43.43,
            45.17,
            42.06,
            37.12,
            43.28,
            49.04,
            52.3,
            55.57,
            58.22,
            54.6,
            49.22,
            46.0,
            59.92,
            51.76,
            64.12,
            72.91,
            67.41,
            73.18,
            66.46,
            69.13,
            66.48,
            62.12,
            57.43,
            53.67,
            48.91,
            42.86,
            46.86,
            51.42,
            55.03,
            59.1,
            63.94,
            57.85,
            51.24,
            46.54,
            42.26,
            38.52,
            36.51,
            32.22,
            27.85,
            34.74,
            32.11,
            39.92,
            37.18,
            43.66,
            52.01,
            45.74,
            46.24,
            42.91,
            37.46,
            45.43,
            49.5,
            45.11,
            40.1,
            46.93,
            42.01,
            45.12,
            39.96,
            46.43,
            50.76,
            55.31,
            60.27,
            68.78,
            62.69,
            58.58,
            52.26,
            60.07,
            67.82,
            80.5,
            94.2,
            108.6,
            123.1,
            107.5,
            98.34,
            85.26,
            72.61,
            65.7,
            57.58,
            49.57,
            44.22,
            39.31,
            44.23,
            52.68,
            48.01,
            57.8,
            64.11,
            56.79,
            61.0,
            55.4,
            59.29,
            63.68,
            56.4,
            50.68,
            54.63,
            59.51,
            63.92,
            68.65,
            77.24,
            85.36,
            92.99,
            88.47,
            90.39,
            81.5,
            74.28,
            68.67,
            61.92,
            56.04,
            59.97,
            64.41,
            77.0,
            70.43,
            82.41,
            74.85,
            78.96,
            74.85,
            76.21,
            68.96,
            64.22,
            58.11,
            53.54,
            58.53,
            63.09,
            67.52,
            73.83,
            79.3,
            69.74,
            72.02,
            71.26,
            66.11,
            72.81,
            75.46,
            79.04,
            81.34,
            84.3,
            75.74,
            71.29,
            67.33,
            63.59,
            71.81,
            68.07,
            75.76,
            78.24,
            81.96,
            88.03,
            91.56,
            95.23,
            87.1,
            75.52,
            81.4,
            69.08,
            63.4,
            58.0,
            62.29,
            68.84,
            73.67,
            79.42,
            72.9,
            82.02,
            74.23,
            71.89,
            76.39,
            78.9,
            71.9,
            66.48,
            71.15,
            66.49
          ]
        ]
      }
    },
    "003": {
      "reaction": {
        "0": {
          "x4_code": "(26-FE-0(N,INL)26-FE-0,PAR,SIG)",
          "0": {
            "code": [
              "26-FE-0",
              [
                "N,INL"
              ],
              "26-FE-0,PAR,SIG"
            ],
            "type": null,
            "target": "26-FE-0",
            "process": "N,INL",
            "sf49": "26-FE-0,PAR,SIG",
            "sf4": "26-FE-0",
            "sf5": "PAR",
            "sf6": "SIG",
            "sf7": null,
            "sf8": null,
            "sf9": null
          },
          "type": null,
          "free_text": ""
        }
      },
      "common": {
        "heads": [
          "E-LVL"
        ],
        "units": [
          "KEV"
        ],
        "data": [
          [
            846.0
          ]
        ]
      },
      "data": {
        "heads": [
          "EN",
          "DATA"
        ],
        "units": [
          "KEV",
          "MB"
        ],
        "data": [
          [
            859.408,
            859.611,
            863.202,
            866.434,
            872.23,
            873.808,
            874.743,
            875.09,
            876.85,
            879.955,
            882.607,
            885.15,
            885.403,
            887.874,
            891.461,
            895.138,
            896.132,
            903.34,
            908.916,
            915.49,
            918.718,
            918.731,
            920.681,
            923.287,
            923.917,
            927.949,
            928.88,
            931.997,
            934.658,
            936.541,
            938.669,
            941.139,
            943.982,
            944.393,
            945.835,
            947.561,
            947.836,
            949.651,
            951.889,
            952.621,
            954.478,
            955.493,
            956.386,
            957.278,
            957.964,
            958.835,
            961.953,
            963.455,
            965.456,
            967.008,
            968.963,
            969.707,
            970.384,
            974.399,
            978.942,
            980.271,
            982.729,
            983.431,
            985.318,
            985.491,
            988.051,
            989.421,
            992.564,
            994.125,
            995.399,
            997.209,
            997.954,
            1000.911,
            1003.022,
            1004.075,
            1005.129,
            1006.169,
            1007.764,
            1008.217,
            1011.462,
            1013.277,
            1015.65,
            1016.098,
            1016.991,
            1017.702,
            1019.956,
            1023.878,
            1024.111,
            1027.148,
            1027.271,
            1029.648,
            1031.002,
            1032.445,
            1033.917,
            1036.349,
            1037.03,
            1037.17,
            1037.876,
            1039.188,
            1040.423,
            1042.805,
            1044.971,
            1045.432,
            1046.439,
            1048.592,
            1048.626,
            1051.418,
            1053.318,
            1053.453,
            1055.335,
            1056.304,
            1057.349,
            1059.528,
            1061.994,
            1062.671,
            1063.356,
            1066.736,
            1066.863,
            1068.784,
            1069.448,
            1072.033,
            1073.315,
            1074.897,
            1076.217,
            1077.456,
            1079.546,
            1079.914,
            1079.986,
            1081.526,
            1083.552,
            1084.255,
            1084.585,
            1086.218,
            1088.324,
            1089.53,
            1091.341,
            1092.06,
            1093.43,
            1093.879,
            1094.128,
            1097.212,
            1098.223,
            1100.394,
            1100.872,
            1103.638,
            1107.014,
            1112.793,
            1112.869,
            1114.663,
            1117.421,
            1119.283,
            1121.093,
            1124.545,
            1127.27,
            1129.486,
            1132.735,
            1135.697,
            1136.94,
            1137.055,
            1137.685,
            1140.422,
            1142.787,
            1147.212,
            1147.309,
            1147.677,
            1148.731,
            1152.043,
            1152.529,
            1156.409,
            1158.202,
            1161.781,
            1163.626,
            1164.916,
            1168.994,
            1170.17,
            1172.374,
            1174.6,
            1179.257,
            1183.792,
            1187.126,
            1189.317,
            1190.773,
            1190.925,
            1194.051,
            1194.144,
            1194.931,
            1197.88,
            1205.917,
            1207.707,
            1209.873,
            1211.451,
            1211.531,
            1213.058,
            1215.241,
            1217.12,
            1218.406,
            1221.468,
            1221.608,
            1225.242,
            1227.455,
            1227.92,
            1229.519,
            1233.969,
            1237.413,
            1241.91,
            1242.963,
            1244.613,
            1248.137,
            1250.929,
            1254.847,
            1256.484,
            1258.692,
            1261.619,
            1262.33,
            1264.158,
            1264.818,
            1268.748,
            1272.026,
            1274.988,
            1276.231,
            1280.728,
            1281.777,
            1283.402,
            1287.285,
            1289.143,
            1290.45,
            1292.32,
            1297.51,
            1301.517,
            1303.712,
            1304.74,
            1305.751,
            1308.92,
            1311.877,
            1314.28,
            1317.283,
            1321.201,
            1324.001,
            1328.832,
            1332.898,
            1335.652,
            1337.822,
            1338.837,
            1340.47,
            1342.387,
            1344.84,
            1349.617,
            1350.666,
            1352.819,
            1357.511,
            1358.555,
            1364.267,
            1367.761,
            1372.96,
            1373.65,
            1377.728,
            1381.848,
            1385.106,
            1386.671,
            1389.349,
            1389.776,
            1391.904,
            1395.542,
            1401.743,
            1401.836,
            1404.592,
            1408.083,
            1409.569,
            1411.056,
            1413.228,
            1414.586,
            1418.138,
            1420.984,
            1423.837,
            1430.276,
            1431.776,
            1435.363,
            1435.455,
            1438.925,
            1442.547,
            1450.44,
            1453.983,
            1457.611,
            1461.947,
            1467.722,
            1469.818,
            1471.907,
            1474.761,
            1475.517,
            1479.147,
            1484.958,
            1489.242,
            1491.373,
            1493.5,
            1496.325,
            1498.439,
            1502.719,
            1506.364,
            1507.173,
            1510.078,
            1515.809,
            1520.066,
            1525.124,
            1525.821,
            1528.644,
            1531.475,
            1537.169,
            1540.822,
            1546.567,
            1549.361,
            1555.878,
            1558.056,
            1562.397,
            1565.226,
            1568.044,
            1568.725,
            1569.375,
            1570.751,
            1574.436,
            1579.491,
            1580.896,
            1585.943,
            1590.985,
            1593.896,
            1597.464,
            1601.036,
            1602.437,
            1608.206,
            1610.397,
            1610.435,
            1614.028,
            1616.143,
            1618.248,
            1619.648,
            1623.196,
            1626.076,
            1630.392,
            1633.957,
            1634.651,
            1637.49,
            1641.033,
            1644.672,
            1646.158,
            1648.342,
            1651.275,
            1653.452,
            1656.341,
            1658.446,
            1663.402,
            1666.289,
            1671.327,
            1674.15,
            1676.206,
            1676.974,
            1679.757,
            1681.878,
            1686.212,
            1689.829,
            1692.031,
            1697.079,
            1701.357,
            1702.037,
            1707.032,
            1711.327,
            1717.049,
            1721.328,
            1722.741,
            1726.296,
            1729.918,
            1732.822,
            1739.286,
            1742.187,
            1748.02,
            1752.292,
            1755.841,
            1762.317,
            1764.426,
            1765.107,
            1770.079,
            1772.991,
            1775.173,
            1780.225,
            1783.043,
            1783.723,
            1785.137,
            1786.55,
            1787.969,
            1789.343,
            1789.363,
            1789.383,
            1791.474,
            1795.02,
            1797.201,
            1798.659,
            1800.123,
            1800.866,
            1802.327,
            1803.794,
            1807.344,
            1812.344,
            1816.62,
            1821.662,
            1826.663,
            1832.406,
            1836.724,
            1840.338,
            1841.093,
            1843.279,
            1844.739,
            1849.069,
            1853.346,
            1857.606,
            1860.505,
            1861.974,
            1863.45,
            1865.634,
            1869.254,
            1872.861,
            1875.692,
            1877.81,
            1879.892,
            1879.927,
            1881.99,
            1882.66,
            1884.767,
            1889.01,
            1892.614,
            1896.962,
            1897.001,
            1900.627,
            1904.178,
            1906.3,
            1909.863,
            1912.054,
            1915.655,
            1918.537,
            1922.106,
            1924.277,
            1926.459,
            1927.942,
            1929.404,
            1930.134,
            1935.848,
            1938.695,
            1940.097,
            1941.5,
            1945.042,
            1949.361,
            1950.828,
            1953.755,
            1957.323,
            1960.168,
            1964.454,
            1969.46,
            1973.746,
            1978.027,
            1980.925,
            1983.098,
            1987.425,
            1990.988,
            1995.266,
            1998.868,
            2002.471,
            2005.352,
            2010.371,
            2013.932,
            2018.202,
            2021.105,
            2022.562,
            2027.594,
            2031.212,
            2036.257,
            2037.669,
            2041.226,
            2043.323,
            2043.345,
            2046.164,
            2047.575,
            2051.904,
            2053.368,
            2056.975,
            2060.537,
            2061.95,
            2065.56,
            2066.974,
            2071.292,
            2071.989,
            2074.837,
            2077.721,
            2082.725,
            2086.29,
            2089.899,
            2093.458,
            2097.066
          ],
          [
            13.16,
            18.26,
            59.82,
            109.8,
            793.3,
            637.7,
            456.4,
            317.9,
            136.4,
            81.2,
            58.51,
            222.8,
            133.5,
            180.3,
            233.5,
            22.03,
            43.58,
            194.0,
            62.07,
            249.5,
            72.06,
            184.7,
            42.9,
            72.03,
            199.0,
            210.1,
            149.4,
            572.7,
            1051.0,
            549.5,
            169.9,
            91.31,
            224.7,
            173.3,
            281.3,
            287.1,
            447.3,
            209.7,
            77.45,
            39.95,
            20.06,
            41.05,
            68.94,
            115.8,
            139.2,
            225.9,
            344.7,
            245.1,
            155.1,
            119.7,
            176.5,
            233.5,
            276.9,
            284.5,
            273.0,
            368.5,
            487.3,
            602.1,
            317.0,
            419.3,
            260.0,
            375.8,
            237.9,
            467.3,
            577.3,
            675.3,
            893.2,
            1052.0,
            795.0,
            688.8,
            596.8,
            506.6,
            418.5,
            345.7,
            257.7,
            303.5,
            350.2,
            287.3,
            192.1,
            240.6,
            229.3,
            202.8,
            295.1,
            157.5,
            191.9,
            223.0,
            313.6,
            202.6,
            137.3,
            174.3,
            208.1,
            260.7,
            324.2,
            425.9,
            494.9,
            578.8,
            478.1,
            400.3,
            321.8,
            260.4,
            275.0,
            248.2,
            335.0,
            416.8,
            547.5,
            413.8,
            353.7,
            298.2,
            399.8,
            474.1,
            569.9,
            528.6,
            648.6,
            360.7,
            419.0,
            270.7,
            339.0,
            689.2,
            917.8,
            1074.0,
            784.3,
            565.2,
            634.7,
            479.8,
            316.4,
            390.9,
            264.9,
            232.7,
            174.7,
            193.5,
            226.3,
            287.4,
            415.3,
            340.7,
            509.6,
            736.4,
            596.0,
            495.6,
            426.5,
            369.5,
            340.3,
            379.4,
            429.0,
            488.3,
            417.3,
            529.7,
            619.6,
            645.3,
            522.2,
            468.1,
            351.4,
            416.6,
            490.6,
            589.9,
            649.0,
            536.0,
            610.0,
            483.6,
            565.7,
            407.7,
            353.3,
            293.7,
            256.3,
            211.6,
            240.9,
            307.8,
            380.3,
            482.8,
            549.4,
            580.2,
            509.6,
            463.0,
            534.2,
            505.6,
            435.0,
            374.3,
            246.8,
            315.5,
            194.3,
            225.8,
            319.8,
            371.5,
            397.4,
            449.3,
            371.1,
            298.2,
            339.5,
            251.4,
            213.4,
            278.4,
            351.1,
            490.3,
            614.1,
            857.6,
            763.6,
            643.8,
            535.4,
            442.1,
            454.2,
            404.3,
            350.3,
            316.2,
            369.8,
            333.8,
            293.1,
            259.2,
            229.2,
            257.3,
            322.2,
            387.4,
            447.0,
            400.6,
            315.4,
            374.0,
            440.5,
            392.1,
            337.4,
            292.3,
            243.1,
            306.5,
            399.9,
            514.6,
            558.2,
            565.7,
            490.1,
            407.6,
            329.9,
            217.5,
            256.1,
            310.0,
            393.5,
            345.5,
            316.1,
            482.4,
            537.8,
            456.5,
            379.6,
            309.3,
            271.7,
            376.9,
            495.0,
            691.3,
            594.9,
            481.4,
            586.4,
            501.2,
            501.0,
            558.6,
            614.3,
            743.5,
            846.1,
            1031.0,
            784.5,
            617.7,
            463.7,
            367.7,
            285.6,
            401.6,
            676.0,
            882.1,
            643.1,
            492.9,
            572.4,
            667.6,
            710.5,
            572.4,
            522.4,
            492.8,
            472.7,
            457.2,
            553.6,
            558.2,
            725.3,
            524.4,
            584.2,
            598.9,
            533.1,
            606.4,
            670.0,
            752.6,
            645.3,
            541.9,
            522.0,
            584.0,
            667.1,
            831.4,
            790.9,
            749.3,
            701.1,
            621.4,
            560.1,
            528.4,
            629.2,
            820.9,
            914.6,
            906.9,
            800.6,
            899.3,
            848.5,
            749.0,
            675.0,
            603.3,
            733.5,
            758.2,
            615.9,
            742.5,
            803.5,
            902.7,
            810.2,
            703.4,
            636.6,
            525.8,
            445.2,
            595.6,
            663.5,
            610.6,
            666.2,
            715.0,
            809.9,
            773.7,
            748.3,
            682.9,
            754.5,
            847.6,
            944.4,
            968.2,
            876.2,
            770.3,
            700.0,
            630.9,
            654.9,
            685.5,
            649.4,
            607.7,
            561.5,
            499.8,
            585.3,
            679.7,
            747.9,
            905.5,
            975.8,
            1039.0,
            913.0,
            766.7,
            812.6,
            861.2,
            760.2,
            580.2,
            671.1,
            527.3,
            485.2,
            533.9,
            587.4,
            682.2,
            744.4,
            696.4,
            627.7,
            589.7,
            580.0,
            561.0,
            527.0,
            497.2,
            457.5,
            509.7,
            567.9,
            589.5,
            648.6,
            860.4,
            795.1,
            719.5,
            772.2,
            687.3,
            619.5,
            544.5,
            619.4,
            678.7,
            749.9,
            651.0,
            586.8,
            553.6,
            522.3,
            501.0,
            422.5,
            447.8,
            474.6,
            400.2,
            359.2,
            392.0,
            420.7,
            459.0,
            494.7,
            535.4,
            589.1,
            535.3,
            509.2,
            474.5,
            509.2,
            486.4,
            498.7,
            524.1,
            571.9,
            637.2,
            706.9,
            761.9,
            827.9,
            774.6,
            689.4,
            755.4,
            838.1,
            945.5,
            1040.0,
            1154.0,
            1233.0,
            1112.0,
            1015.0,
            834.5,
            922.0,
            718.5,
            629.0,
            555.2,
            472.1,
            500.4,
            571.5,
            639.4,
            721.3,
            658.2,
            605.7,
            571.4,
            642.0,
            674.8,
            703.4,
            674.7,
            715.1,
            783.6,
            902.5,
            980.8,
            1018.0,
            960.5,
            906.2,
            830.4,
            761.0,
            674.5,
            712.0,
            783.4,
            928.9,
            887.3,
            833.7,
            799.7,
            773.5,
            742.0,
            702.9,
            767.0,
            819.7,
            883.4,
            833.4,
            779.7,
            823.0,
            868.6,
            905.5,
            909.2,
            850.6,
            779.5,
            864.8,
            924.3,
            963.5,
            1065.0,
            1152.0,
            1082.0,
            1004.0,
            861.0,
            916.4,
            798.9,
            750.6,
            812.3,
            886.3,
            947.3,
            890.0,
            839.6,
            904.8,
            857.2,
            901.0,
            850.1,
            805.3,
            846.5,
            815.4,
            772.4,
            829.0,
            772.4,
            828.9
          ]
        ]
      }
    },
    "004": {
      "reaction": {
        "0": {
          "x4_code": "(26-FE-0(N,INL)26-FE-0,PAR,SIG,,AV)",
          "0": {
            "code": [
              "26-FE-0",
              [
                "N,INL"
              ],
              "26-FE-0,PAR,SIG,,AV"
            ],
            "type": null,
            "target": "26-FE-0",
            "process": "N,INL",
            "sf49": "26-FE-0,PAR,SIG,,AV",
            "sf4": "26-FE-0",
            "sf5": "PAR",
            "sf6": "SIG",
            "sf7": null,
            "sf8": "AV",
            "sf9": null
          },
          "type": null,
          "free_text": ""
        }
      },
      "common": {
        "heads": [
          "E-LVL"
        ],
        "units": [
          "KEV"
        ],
        "data": [
          [
            846.0
          ]
        ]
      },
      "data": {
        "heads": [
          "EN-MIN",
          "EN-MAX",
          "DATA"
        ],
        "units": [
          "KEV",
          "KEV",
          "MB"
        ],
        "data": [
          [
            860.0,
            900.0,
            1000.0,
            1100.0,
            1200.0,
            1300.0,
            1400.0,
            1500.0,
            1600.0,
            1700.0,
            1800.0,
            1900.0,
            2000.0
          ],
          [
            900.0,
            1000.0,
            1100.0,
            1200.0,
            1300.0,
            1400.0,
            1500.0,
            1600.0,
            1700.0,
            1800.0,
            1900.0,
            2000.0,
            2100.0
          ],
          [
            164.7,
            234.8,
            361.5,
            405.3,
            385.6,
            487.5,
            606.4,
            716.4,
            698.6,
            595.0,
            652.0,
            763.4,
            845.9
          ]
        ]
      }
    },
    "005": {
      "reaction": {
        "0": {
          "x4_code": "(26-FE-0(N,INL)26-FE-0,PAR,DA,G)",
          "0": {
            "code": [
              "26-FE-0",
              [
                "N,INL"
              ],
              "26-FE-0,PAR,DA,G"
            ],
            "type": null,
            "target": "26-FE-0",
            "process": "N,INL",
            "sf49": "26-FE-0,PAR,DA,G",
            "sf4": "26-FE-0",
            "sf5": "PAR",
            "sf6": "DA",
            "sf7": "G",
            "sf8": null,
            "sf9": null
          },
          "type": null,
          "free_text": ""
        }
      },
      "common": {
        "heads": [
          "ANG",
          "E"
        ],
        "units": [
          "ADEG",
          "KEV"
        ],
        "data": [
          [
            90.0
          ],
          [
            846.0
          ]
        ]
      },
      "data": {
        "heads": [
          "EN",
          "DATA"
        ],
        "units": [
          "KEV",
          "MB/SR"
        ],
        "data": [
          [
            851.807,
            855.831,
            858.426,
            861.576,
            862.179,
            862.333,
            862.988,
            865.304,
            867.386,
            867.461,
            869.13,
            870.826,
            871.496,
            872.131,
            873.429,
            874.693,
            876.005,
            877.293,
            878.151,
            878.983,
            880.813,
            883.579,
            885.283,
            886.357,
            887.397,
            889.601,
            890.326,
            891.519,
            892.151,
            893.548,
            893.921,
            894.52,
            896.726,
            897.949,
            900.631,
            904.002,
            905.921,
            907.778,
            910.169,
            912.816,
            912.963,
            914.562,
            915.69,
            916.784,
            918.661,
            919.52,
            920.244,
            920.54,
            922.791,
            924.034,
            924.856,
            925.232,
            926.034,
            927.805,
            929.48,
            930.097,
            931.696,
            933.246,
            933.422,
            935.813,
            935.826,
            938.523,
            938.731,
            939.075,
            939.782,
            941.439,
            943.213,
            945.659,
            945.741,
            946.386,
            946.991,
            948.396,
            949.879,
            950.534,
            951.657,
            952.421,
            952.546,
            954.629,
            956.437,
            956.786,
            958.121,
            959.314,
            960.46,
            961.598,
            963.74,
            964.581,
            965.33,
            966.602,
            967.786,
            970.941,
            974.479,
            979.024,
            983.155,
            983.405,
            984.811,
            986.079,
            986.474,
            990.671,
            991.014,
            993.477,
            994.36,
            997.568,
            1001.216,
            1003.751,
            1005.664,
            1006.079,
            1006.51,
            1007.934,
            1009.869,
            1012.76,
            1016.826,
            1018.744,
            1021.323,
            1023.263,
            1025.861,
            1026.408,
            1027.265,
            1028.151,
            1030.539,
            1033.652,
            1035.532,
            1038.079,
            1038.457,
            1041.197,
            1042.328,
            1042.955,
            1046.031,
            1047.43,
            1048.825,
            1048.877,
            1050.772,
            1053.697,
            1055.249,
            1058.279,
            1061.721,
            1061.806,
            1063.364,
            1065.411,
            1068.955,
            1070.357,
            1071.268,
            1072.197,
            1073.621,
            1075.723,
            1076.345,
            1078.455,
            1081.751,
            1081.889,
            1082.329,
            1083.691,
            1084.637,
            1086.052,
            1088.497,
            1092.409,
            1094.508,
            1096.094,
            1096.685,
            1097.26,
            1099.309,
            1100.736,
            1101.179,
            1102.626,
            1105.086,
            1107.051,
            1111.055,
            1114.569,
            1115.617,
            1118.047,
            1118.981,
            1120.522,
            1121.088,
            1123.125,
            1125.68,
            1127.121,
            1130.528,
            1131.974,
            1134.375,
            1136.95,
            1142.533,
            1151.831,
            1154.163,
            1155.583,
            1158.506,
            1160.605,
            1162.64,
            1164.181,
            1167.257,
            1167.817,
            1169.371,
            1171.428,
            1172.865,
            1173.801,
            1174.745,
            1176.679,
            1177.267,
            1179.322,
            1179.894,
            1181.448,
            1184.855,
            1187.352,
            1190.338,
            1191.795,
            1193.154,
            1193.224,
            1195.021,
            1197.584,
            1198.64,
            1200.214,
            1200.742,
            1202.684,
            1204.628,
            1205.552,
            1207.639,
            1208.179,
            1210.712,
            1212.654,
            1214.071,
            1215.0,
            1216.434,
            1217.9,
            1220.44,
            1220.73,
            1221.036,
            1221.599,
            1221.666,
            1223.763,
            1223.833,
            1224.901,
            1225.474,
            1227.506,
            1229.919,
            1231.358,
            1231.799,
            1233.235,
            1235.648,
            1238.641,
            1241.589,
            1242.065,
            1243.016,
            1246.95,
            1249.002,
            1252.03,
            1254.986,
            1257.944,
            1258.888,
            1262.757,
            1264.319,
            1265.92,
            1266.959,
            1268.991,
            1270.412,
            1271.314,
            1271.361,
            1274.723,
            1277.372,
            1277.492,
            1281.016,
            1282.545,
            1283.463,
            1284.404,
            1287.823,
            1291.182,
            1291.294,
            1291.917,
            1295.0,
            1296.522,
            1299.567,
            1302.08,
            1304.094,
            1306.026,
            1306.46,
            1307.348,
            1308.745,
            1309.173,
            1312.542,
            1313.14,
            1316.233,
            1319.234,
            1321.734,
            1324.684,
            1326.634,
            1329.715,
            1330.793,
            1332.845,
            1336.881,
            1338.821,
            1340.268,
            1341.199,
            1342.626,
            1343.965,
            1345.176,
            1349.357,
            1350.921,
            1354.843,
            1356.885,
            1359.29,
            1360.739,
            1364.148,
            1367.228,
            1371.23,
            1374.258,
            1376.295,
            1378.332,
            1380.934,
            1383.995,
            1386.508,
            1386.931,
            1387.312,
            1391.524,
            1391.624,
            1392.879,
            1393.832,
            1396.253,
            1398.79,
            1402.887,
            1406.282,
            1411.817,
            1413.689,
            1416.861,
            1419.852,
            1423.416,
            1426.618,
            1432.261,
            1437.342,
            1440.49,
            1443.093,
            1444.024,
            1445.781,
            1446.046,
            1446.723,
            1449.435,
            1451.545,
            1451.683,
            1453.032,
            1456.893,
            1461.997,
            1467.132,
            1471.295,
            1474.406,
            1475.911,
            1478.256,
            1478.533,
            1480.399,
            1483.014,
            1488.941,
            1491.291,
            1494.499,
            1496.838,
            1498.144,
            1498.306,
            1500.428,
            1502.718,
            1505.328,
            1507.943,
            1509.749,
            1511.585,
            1514.123,
            1517.295,
            1519.022,
            1521.584,
            1523.414,
            1524.603,
            1527.775,
            1530.047,
            1533.752,
            1533.914,
            1535.275,
            1539.22,
            1543.503,
            1546.994,
            1549.285,
            1550.789,
            1552.318,
            1553.841,
            1556.451,
            1557.441,
            1558.401,
            1561.814,
            1564.466,
            1566.75,
            1569.028,
            1569.717,
            1573.633,
            1575.397,
            1578.749,
            1582.966,
            1586.168,
            1590.247,
            1592.79,
            1594.608,
            1595.538,
            1600.6,
            1603.754,
            1605.307,
            1611.125,
            1612.883,
            1615.517,
            1617.807,
            1619.251,
            1620.726,
            1622.188,
            1627.227,
            1631.251,
            1634.38,
            1637.522,
            1639.861,
            1644.053,
            1645.056,
            1646.904,
            1650.347,
            1653.035,
            1657.216,
            1661.27,
            1665.3,
            1667.081,
            1671.262,
            1673.793,
            1676.083,
            1676.766,
            1677.468,
            1679.8,
            1683.709,
            1691.219,
            1693.804,
            1697.241,
            1702.334,
            1705.494,
            1706.987,
            1711.252,
            1713.554,
            1717.807,
            1722.586,
            1723.275,
            1728.012,
            1733.044,
            1737.225,
            1741.393,
            1743.133,
            1746.649,
            1749.318,
            1752.485,
            1757.264,
            1761.282,
            1764.478,
            1768.496,
            1770.037,
            1772.393,
            1774.277,
            1778.53,
            1778.663,
            1780.445,
            1783.036,
            1783.683,
            1784.246,
            1785.194,
            1786.59,
            1788.119,
            1790.421,
            1793.563,
            1797.515,
            1799.381,
            1800.395,
            1804.745,
            1810.37,
            1815.209,
            1819.994,
            1824.247,
            1829.219,
            1838.251,
            1841.676,
            1844.28,
            1846.05,
            1847.85,
            1852.079,
            1856.09,
            1859.172,
            1860.731,
            1863.286,
            1866.736,
            1868.493,
            1868.662,
            1872.74,
            1875.085,
            1876.607,
            1879.761,
            1882.813,
            1884.294,
            1887.478,
            1892.239,
            1895.646,
            1897.585,
            1898.262,
            1903.565,
            1905.124,
            1909.112,
            1910.665,
            1913.334,
            1918.078,
            1920.699,
            1926.559,
            1928.371,
            1929.331,
            1931.101,
            1932.871,
            1936.278,
            1940.236,
            1943.378,
            1945.59,
            1945.722,
            1948.72,
            1950.483,
            1953.081,
            1955.69,
            1961.321,
            1967.726,
            1976.812,
            1978.269,
            1983.385,
            1986.853,
            1994.109,
            1998.163,
            2004.083,
            2005.853,
            2010.735,
            2014.771,
            2016.324,
            2021.079,
            2022.879,
            2027.162,
            2028.098,
            2031.475,
            2035.661,
            2038.223,
            2043.002,
            2043.679,
            2044.356,
            2045.879,
            2048.991,
            2053.249,
            2055.829,
            2057.581,
            2060.208,
            2063.362,
            2068.172,
            2073.905,
            2079.584,
            2082.768,
            2089.221,
            2091.855,
            2094.434,
            2097.739
          ],
          [
            1.057,
            1.163,
            1.493,
            2.197,
            2.82,
            1.241,
            1.805,
            3.911,
            4.844,
            5.79,
            8.78,
            14.21,
            21.42,
            29.72,
            61.03,
            35.3,
            22.87,
            13.96,
            10.06,
            6.794,
            4.615,
            2.718,
            4.479,
            17.7,
            5.993,
            9.936,
            17.07,
            27.31,
            11.46,
            9.085,
            6.748,
            2.621,
            1.33,
            2.285,
            3.612,
            29.48,
            7.55,
            5.475,
            4.315,
            6.276,
            8.914,
            11.44,
            15.68,
            19.78,
            15.04,
            10.84,
            5.67,
            3.502,
            1.978,
            3.564,
            7.723,
            5.77,
            11.92,
            23.07,
            10.84,
            4.388,
            5.632,
            21.09,
            9.792,
            25.36,
            85.85,
            42.8,
            21.47,
            14.84,
            7.445,
            3.355,
            6.531,
            19.28,
            23.46,
            10.14,
            13.1,
            34.73,
            10.32,
            15.01,
            6.187,
            3.558,
            4.791,
            1.817,
            3.843,
            2.69,
            6.039,
            9.662,
            13.8,
            19.37,
            27.68,
            19.14,
            10.62,
            6.256,
            9.772,
            14.55,
            16.49,
            19.13,
            27.16,
            49.23,
            39.98,
            23.26,
            18.23,
            30.22,
            20.9,
            19.57,
            14.97,
            25.27,
            37.19,
            41.38,
            34.21,
            28.11,
            23.94,
            20.26,
            17.67,
            14.01,
            17.04,
            14.26,
            17.66,
            15.58,
            20.12,
            22.66,
            16.24,
            12.5,
            9.794,
            13.18,
            10.09,
            11.56,
            8.691,
            15.75,
            21.72,
            29.59,
            36.43,
            29.06,
            22.9,
            25.95,
            20.57,
            17.73,
            20.33,
            22.49,
            20.2,
            24.72,
            28.86,
            32.89,
            37.7,
            30.25,
            24.71,
            21.04,
            17.81,
            23.14,
            31.15,
            41.2,
            26.21,
            36.35,
            31.7,
            23.13,
            20.53,
            16.97,
            15.25,
            12.83,
            16.57,
            20.64,
            25.72,
            30.93,
            35.46,
            30.2,
            26.49,
            23.66,
            22.03,
            20.63,
            21.63,
            23.09,
            26.16,
            22.67,
            19.54,
            21.87,
            25.68,
            28.58,
            33.36,
            29.44,
            24.33,
            21.73,
            17.54,
            21.47,
            27.55,
            18.59,
            12.78,
            10.69,
            9.158,
            11.83,
            13.08,
            14.65,
            18.03,
            20.92,
            24.13,
            28.16,
            24.56,
            21.29,
            18.79,
            16.39,
            20.3,
            23.55,
            28.15,
            32.47,
            26.83,
            27.31,
            27.15,
            24.83,
            18.0,
            21.27,
            13.37,
            15.89,
            18.32,
            22.16,
            23.8,
            21.13,
            18.87,
            15.88,
            19.9,
            22.02,
            24.36,
            21.63,
            17.98,
            15.31,
            13.28,
            12.43,
            14.0,
            27.92,
            17.66,
            20.61,
            24.2,
            31.06,
            36.69,
            43.6,
            52.12,
            57.31,
            47.65,
            41.81,
            36.46,
            31.79,
            26.44,
            26.75,
            24.32,
            23.05,
            20.71,
            18.38,
            21.2,
            23.31,
            21.57,
            20.08,
            17.72,
            13.48,
            15.82,
            20.43,
            22.61,
            24.86,
            20.92,
            16.69,
            18.68,
            13.87,
            20.3,
            27.01,
            29.52,
            32.08,
            26.68,
            23.4,
            19.93,
            14.71,
            19.22,
            25.88,
            32.44,
            34.63,
            39.7,
            41.88,
            44.17,
            38.29,
            32.81,
            25.4,
            20.14,
            17.05,
            12.89,
            16.35,
            20.99,
            21.62,
            22.13,
            20.24,
            18.29,
            22.79,
            27.73,
            31.98,
            36.23,
            31.97,
            28.55,
            24.46,
            20.83,
            14.4,
            24.02,
            38.42,
            45.38,
            39.1,
            44.04,
            35.97,
            32.31,
            26.87,
            33.47,
            34.89,
            38.37,
            42.7,
            47.51,
            62.09,
            73.76,
            77.81,
            65.09,
            49.21,
            25.88,
            32.83,
            18.55,
            16.76,
            14.19,
            15.88,
            37.06,
            40.38,
            34.0,
            40.75,
            37.22,
            29.45,
            36.68,
            34.3,
            31.47,
            35.45,
            31.76,
            35.44,
            38.62,
            42.28,
            52.16,
            46.51,
            56.56,
            42.68,
            47.63,
            37.69,
            30.99,
            35.58,
            41.84,
            43.67,
            38.02,
            34.07,
            30.96,
            38.56,
            46.01,
            51.83,
            59.51,
            54.34,
            51.07,
            46.19,
            35.36,
            40.22,
            30.64,
            26.68,
            29.91,
            33.7,
            38.33,
            44.65,
            47.28,
            43.17,
            46.15,
            49.81,
            57.74,
            77.25,
            70.55,
            60.55,
            43.97,
            50.02,
            39.97,
            35.13,
            40.34,
            47.43,
            41.3,
            37.0,
            33.79,
            30.72,
            34.44,
            39.36,
            43.93,
            48.55,
            56.28,
            48.77,
            42.06,
            37.87,
            32.5,
            35.75,
            37.67,
            41.04,
            38.39,
            37.48,
            39.87,
            45.78,
            49.89,
            55.4,
            49.87,
            46.42,
            48.91,
            53.55,
            61.2,
            53.28,
            45.52,
            39.82,
            34.51,
            37.6,
            35.16,
            31.05,
            27.69,
            25.05,
            26.77,
            30.89,
            36.33,
            41.12,
            49.06,
            51.94,
            49.75,
            46.75,
            52.17,
            55.23,
            58.2,
            50.68,
            45.41,
            41.27,
            37.15,
            31.74,
            34.74,
            38.21,
            43.05,
            48.96,
            44.28,
            39.3,
            44.48,
            39.1,
            43.84,
            38.9,
            35.02,
            30.06,
            32.59,
            34.5,
            36.18,
            39.05,
            46.81,
            55.05,
            50.03,
            44.4,
            41.32,
            38.46,
            35.8,
            33.01,
            30.29,
            36.65,
            41.09,
            45.64,
            50.93,
            56.3,
            49.02,
            39.92,
            44.13,
            36.29,
            33.14,
            29.13,
            25.97,
            22.94,
            27.37,
            31.88,
            38.58,
            34.89,
            32.48,
            28.96,
            32.46,
            33.56,
            33.39,
            37.25,
            41.57,
            45.95,
            52.02,
            57.21,
            53.0,
            45.06,
            42.14,
            45.26,
            51.48,
            56.36,
            64.42,
            62.89,
            57.16,
            51.95,
            46.77,
            38.82,
            34.13,
            31.46,
            27.52,
            30.27,
            38.24,
            34.1,
            45.84,
            42.87,
            38.96,
            36.27,
            42.65,
            36.78,
            41.63,
            45.36,
            51.84,
            57.85,
            63.94,
            70.68,
            77.74,
            68.99,
            61.51,
            50.34,
            55.91,
            44.46,
            48.91,
            54.31,
            60.9,
            55.34,
            48.41,
            50.27,
            43.35,
            50.26,
            57.98,
            51.94,
            49.75,
            56.84,
            62.83,
            60.47,
            57.09,
            53.14,
            46.27,
            52.37,
            60.14,
            65.84,
            70.72,
            75.23,
            81.19,
            72.04,
            64.25,
            57.29,
            52.07,
            45.34,
            51.07,
            55.91,
            60.92,
            69.29,
            62.38,
            56.69,
            55.87,
            52.75,
            48.63,
            44.19,
            50.5,
            55.29,
            56.08
          ]
        ]
      }
    }
  },
  "experimental_conditions": {
    "001": {
      "correction": {
        "0": [
          {
            "x4_code": null,
            "free_txt": [
              "Data corrected for dead time, multiple scattering of",
              "neutrons and gammas, and background."
            ]
          }
        ]
      },
      "detector": {
        "0": [
          {
            "x4_code": "(SCIN)",
            "free_txt": [
              " Three NE213 liquid scintillators, 5.08-cm",
              "diameter by 10.16-cm high, in stainless steel cans.",
              "Axis of scintillators placed parallel to scattering",
              "sample axis. NE110 scintillator used to obtain",
              "reference signal from gamma flash for time of flight",
              "measurements."
            ]
          }
        ]
      },
      "err-analys": {
        "0": [
          {
            "x4_code": "(DATA-ERR)",
            "free_txt": [
              " In addition to statistical uncertainties,",
              "errors are due to overall uncertainty in iron-lithium",
              "measurement of about 7-percent. This uncertainty is",
              "due to equal contributions from neutron multiple",
              "scattering, gamma efficiency ratios, and",
              "internormalization of runs."
            ]
          }
        ]
      },
      "facility": {
        "0": [
          {
            "x4_code": "(LINAC,1USAORL)",
            "free_txt": [
              " ORELA."
            ]
          }
        ]
      },
      "inc-source": {
        "0": [
          {
            "x4_code": "(EVAP)",
            "free_txt": [
              " Electrons on tantalum to provide white neutron",
              "source."
            ]
          }
        ]
      },
      "method": {
        "0": [
          {
            "x4_code": "(TOF)",
            "free_txt": [
              " Time of flight. Shadow bar used to reduce",
              "neutron source gamma flash. Filters of depleted",
              "uranium and 10B used to prevent overlap. Collimators",
              "placed in beam path at 20 and 40-meters with",
              "alignment checked by exposing film to gamma-ray",
              "field."
            ]
          }
        ]
      },
      "monitor": {
        "0": [
          {
            "x4_code": "(3-LI-7(N,INL)3-LI-7,PAR,DA,G)",
            "free_txt": [
              " Taken from ENDF/B-IV.",
              "Carbon sample used to estimate backgrounds.",
              "Calibrated sources of 54Mn, 137Cs, 27Na, and 60Co",
              "used to adjust detector-amplifier gain."
            ]
          }
        ]
      },
      "part-det": {
        "0": [
          {
            "x4_code": "(G,N)",
            "free_txt": []
          }
        ]
      },
      "sample": {
        "0": [
          {
            "x4_code": null,
            "free_txt": [
              "Four iron samples, all cylindrical and all 6.35 cm",
              "high, were used for the measurements."
            ]
          }
        ]
      },
      "status": {
        "0": [
          {
            "x4_code": "(APRVD)",
            "free_txt": [
              " Approved by F.G.Perey, 1980/10/10."
            ]
          }
        ]
      }
    },
    "002": {
      "status": {
        "0": [
          {
            "x4_code": "(CURVE)",
            "free_txt": [
              " Figs. 2-3, page 424.",
              " Continuous curves, points for digitization were",
              " determined by compiler."
            ]
          }
        ]
      }
    },
    "003": {
      "status": {
        "0": [
          {
            "x4_code": "(CURVE)",
            "free_txt": [
              " Figs. 6-7, page 425.",
              " Continuous curves, points for digitization were",
              " determined by compiler."
            ]
          },
          {
            "x4_code": "(DEP,10682002)",
            "free_txt": []
          },
          {
            "x4_code": "(DEP,10682005)",
            "free_txt": []
          }
        ]
      }
    },
    "004": {
      "status": {
        "0": [
          {
            "x4_code": "(TABLE)",
            "free_txt": [
              " Table I, page 429."
            ]
          },
          {
            "x4_code": "(DEP,10682003)",
            "free_txt": []
          }
        ]
      }
    },
    "005": {
      "status": {
        "0": [
          {
            "x4_code": "(CURVE)",
            "free_txt": [
              " Figs. 4-5, page 425.",
              " Continuous curves, points for digitization were",
              " determined by compiler."
            ]
          }
        ]
      }
    }
  }
}