{
  "entry": "F0967",
  "last_updated": "2012-07-02",
  "number_of_revisions": "2",
  "histories": [
    {
      "x4_code": "(20081002C)",
      "free_txt": []
    },
    {
      "x4_code": "(20120125A)",
      "free_txt": [
        "  COMMON in Sub 002, 003 was added,",
        "REACTION record in Sub 002, 003 was changed."
      ]
    }
  ],
  "bib_record": {
    "title": "Gamma radiations from the proton capture of 25Mg.",
    "authors": [
      {
        "name": "D.R.Neher"
      },
      {
        "name": "F.W.Prosser Jr"
      },
      {
        "name": "R.W.Krone"
      }
    ],
    "institutes": [
      {
        "x4_code": "(1USAKAN)",
        "free_txt": []
      }
    ],
    "references": {
      "0": [
        {
          "x4_code": "(J,NP,31,231,1962)",
          "free_txt": [],
          "publication_year": "1962"
        }
      ]
    },
    "facilities": {
      "0": [
        {
          "x4_code": null,
          "free_txt": [
            "Facility is not given."
          ]
        }
      ]
    }
  },
  "data_tables": {
    "001": {
      "extra_information": {
        "detector": {
          "0": [
            {
              "x4_code": "(NAICR)",
              "free_txt": [
                " The gamma rays produced by the reaction were",
                "detected with a 12.7 cm*12.7 cm NaI crystal mounted on",
                "a Dumont 6363 photomultiplier tube. A 7.5 cm thick",
                "collimator was inserted between the target and the",
                "detector. A 7.5 cm*7.5 cm NaI crystal was used as the",
                "second detector in a slow-fast coincidence arrangement."
              ]
            }
          ]
        },
        "err-analys": {
          "0": [
            {
              "x4_code": "(EN-ERR-DIG)",
              "free_txt": [
                " Energy digitizing error"
              ]
            },
            {
              "x4_code": "(ERR-DIG)",
              "free_txt": [
                "    Data digitizing error"
              ]
            }
          ]
        },
        "facility": {
          "0": [
            {
              "x4_code": null,
              "free_txt": [
                "Facility is not given."
              ]
            }
          ]
        },
        "method": {
          "0": [
            {
              "x4_code": "(GSPEC)",
              "free_txt": []
            },
            {
              "x4_code": "(PHD)",
              "free_txt": []
            },
            {
              "x4_code": "(COINC)",
              "free_txt": []
            }
          ]
        },
        "sample": {
          "0": [
            {
              "x4_code": null,
              "free_txt": [
                "The targets were prepared by the evaporation of 25MgO",
                "on to gold backings. This material was available with",
                "an isotopic enrichment exceeding 95%. These targets",
                "were mounted in a special target chamber that allowed",
                "good thermal contact between the target backing and the",
                "walls of the chamber to minimize heating by the beam.",
                "The targets had a thickness of less than 2 keV."
              ]
            }
          ]
        }
      }
    },
    "002": {
      "reaction": {
        "0": {
          "x4_code": "(12-MG-25(P,G)13-AL-26,PAR,DA,,REL)",
          "0": {
            "code": [
              "12-MG-25",
              [
                "P,G"
              ],
              "13-AL-26,PAR,DA,,REL"
            ],
            "type": null,
            "target": "12-MG-25",
            "process": "P,G",
            "sf49": "13-AL-26,PAR,DA,,REL",
            "sf4": "13-AL-26",
            "sf5": "PAR",
            "sf6": "DA",
            "sf7": null,
            "sf8": "REL",
            "sf9": null
          },
          "type": null,
          "free_text": "Data are given in counts per mu-Coulomb."
        }
      },
      "extra_information": {
        "en-sec": {
          "0": [
            {
              "x4_code": null,
              "free_txt": [
                "Gamma rays of energy greater than 1.0 MeV were detected"
              ]
            }
          ]
        },
        "status": {
          "0": [
            {
              "x4_code": "(CURVE)",
              "free_txt": [
                " Fig.1"
              ]
            }
          ]
        }
      },
      "common": {
        "heads": [
          "E-MIN"
        ],
        "units": [
          "MEV"
        ],
        "data": [
          [
            1.0
          ]
        ]
      },
      "data": {
        "heads": [
          "EN",
          "DATA"
        ],
        "units": [
          "MEV",
          "ARB-UNITS"
        ],
        "data": [
          [
            0.9118,
            0.913,
            0.9145,
            0.9156,
            0.9171,
            0.9186,
            0.9198,
            0.921,
            0.9225,
            0.9242,
            0.9257,
            0.9269,
            0.9281,
            0.9293,
            0.9305,
            0.9317,
            0.9317,
            0.9323,
            0.9329,
            0.9341,
            0.9352,
            0.937,
            0.9382,
            0.9394,
            0.9409,
            0.9421,
            0.9435,
            0.9447,
            0.9462,
            0.9477,
            0.9492,
            0.9506,
            0.9518,
            0.9536,
            0.9551,
            0.956,
            0.9569,
            0.9571,
            0.9585,
            0.9599,
            0.9604,
            0.961,
            0.9619,
            0.9631,
            0.9643,
            0.9658,
            0.9672,
            0.9684,
            0.9702,
            0.9717,
            0.9729,
            0.9744,
            0.9758,
            0.977,
            0.9785,
            0.98,
            0.9812,
            0.9827,
            0.9839,
            0.9853,
            0.9856,
            0.9865,
            0.9874,
            0.988,
            0.9889,
            0.9895,
            0.9901,
            0.9913,
            0.9919,
            0.9928,
            0.994,
            0.9954,
            0.9966,
            0.9981,
            0.9993,
            1.0005,
            1.0022,
            1.0034,
            1.0052,
            1.0067,
            1.0079,
            1.0097,
            1.0105,
            1.0117,
            1.0129,
            1.0153,
            1.0162,
            1.0177,
            1.0191,
            1.0206,
            1.0218,
            1.0233,
            1.0245,
            1.026,
            1.0272,
            1.028,
            1.0289,
            1.0296,
            1.0305,
            1.0316,
            1.0316,
            1.0325,
            1.0334,
            1.0349,
            1.0358,
            1.0375,
            1.0387,
            1.0399,
            1.0414,
            1.0432,
            1.0441,
            1.0461,
            1.0464,
            1.0472,
            1.0486,
            1.05,
            1.0509,
            1.0518,
            1.053,
            1.0547,
            1.0559,
            1.0574,
            1.0589,
            1.0601,
            1.0616,
            1.0624,
            1.0642,
            1.0657,
            1.0675,
            1.0684,
            1.0699,
            1.071,
            1.0725,
            1.0737,
            1.0755,
            1.0767,
            1.0779,
            1.0793,
            1.0805,
            1.082,
            1.0832,
            1.0844,
            1.0859,
            1.0865,
            1.0871,
            1.0874,
            1.0883,
            1.0892,
            1.0898,
            1.0906,
            1.0918,
            1.0924,
            1.0936,
            1.0951,
            1.0966,
            1.0977,
            1.0992,
            1.101,
            1.1025,
            1.1034,
            1.1052,
            1.1064,
            1.107,
            1.1076,
            1.1082,
            1.109,
            1.1096,
            1.1108,
            1.112,
            1.1132,
            1.1146,
            1.1161,
            1.1173,
            1.1182,
            1.1197,
            1.1218,
            1.1229,
            1.1244,
            1.1253,
            1.1271,
            1.128,
            1.1298,
            1.131,
            1.1327,
            1.1339,
            1.1351,
            1.1372,
            1.1381,
            1.139,
            1.1393,
            1.1399,
            1.1402,
            1.1411,
            1.1417,
            1.1423,
            1.1429,
            1.144,
            1.1449,
            1.1458,
            1.1464,
            1.1479,
            1.149,
            1.1505,
            1.1521,
            1.1535,
            1.1544,
            1.1553,
            1.1565,
            1.1577,
            1.1588,
            1.16,
            1.1618,
            1.163,
            1.1642,
            1.166,
            1.1675,
            1.1687,
            1.1704,
            1.1713,
            1.1728,
            1.1743,
            1.1754,
            1.1769,
            1.1784,
            1.1799,
            1.1814,
            1.1829,
            1.1835,
            1.1855,
            1.1867,
            1.1879,
            1.1894,
            1.1909,
            1.1924,
            1.1935,
            1.195,
            1.1968,
            1.1974,
            1.198,
            1.199,
            1.1998,
            1.2007,
            1.2013,
            1.2019,
            1.2024,
            1.2033,
            1.2051,
            1.2063,
            1.2072,
            1.2088,
            1.2102,
            1.2116,
            1.2128,
            1.2149,
            1.2158,
            1.2173,
            1.2185,
            1.2199,
            1.2217,
            1.2229,
            1.2244,
            1.2262,
            1.2273,
            1.2282,
            1.2294,
            1.2312,
            1.2321,
            1.2342,
            1.2354,
            1.2368,
            1.2383,
            1.2398,
            1.2411,
            1.2423,
            1.244,
            1.2451,
            1.2469,
            1.2484,
            1.2499,
            1.2511,
            1.2523,
            1.2537,
            1.2552,
            1.2564,
            1.2576,
            1.2591,
            1.2603,
            1.2626,
            1.2632,
            1.265,
            1.2662,
            1.2677,
            1.2692,
            1.2709,
            1.2724,
            1.2733,
            1.2748,
            1.276,
            1.2778,
            1.2793,
            1.2804,
            1.2819,
            1.2831,
            1.2846,
            1.2858,
            1.2876,
            1.2891,
            1.2905,
            1.292,
            1.2938,
            1.2947,
            1.2959,
            1.2973,
            1.2988,
            1.3,
            1.3018,
            1.303,
            1.3039,
            1.3048,
            1.3051,
            1.3063,
            1.3066,
            1.3075,
            1.3084,
            1.3087,
            1.3096,
            1.3105,
            1.3111,
            1.3117,
            1.3125,
            1.3134,
            1.3137,
            1.3146,
            1.3152,
            1.3163,
            1.3172,
            1.3178,
            1.319,
            1.3205,
            1.3217,
            1.3228,
            1.3246,
            1.3261,
            1.3276,
            1.3285,
            1.3303,
            1.3315,
            1.3329,
            1.3338,
            1.3347,
            1.3359,
            1.3377,
            1.3392,
            1.3401,
            1.3412,
            1.3427,
            1.3445,
            1.346,
            1.3472,
            1.3475,
            1.3484,
            1.3499,
            1.3513,
            1.3528,
            1.3537,
            1.3543,
            1.3555,
            1.3567,
            1.3584,
            1.3596,
            1.3611,
            1.3629,
            1.3641,
            1.3653,
            1.3668,
            1.3682,
            1.3694,
            1.3709,
            1.3721,
            1.3736,
            1.3751,
            1.3766,
            1.378,
            1.3792,
            1.3809,
            1.3823,
            1.3837,
            1.3852,
            1.3866,
            1.3881,
            1.3896,
            1.3908,
            1.3923,
            1.3935,
            1.3952,
            1.3967,
            1.3979,
            1.3994
          ],
          [
            21.096,
            21.092,
            20.241,
            19.814,
            21.076,
            18.111,
            19.798,
            18.948,
            20.211,
            18.936,
            19.775,
            18.925,
            18.921,
            19.762,
            20.18,
            22.29,
            26.095,
            61.184,
            51.88,
            34.542,
            26.504,
            25.652,
            26.07,
            27.334,
            25.637,
            25.21,
            21.4,
            21.818,
            21.812,
            20.961,
            20.11,
            20.95,
            22.637,
            20.093,
            19.665,
            20.084,
            34.878,
            144.8,
            87.721,
            48.396,
            25.986,
            22.179,
            17.948,
            17.521,
            18.362,
            19.202,
            18.351,
            17.923,
            15.803,
            15.374,
            15.37,
            24.666,
            17.473,
            16.2,
            15.771,
            15.766,
            16.607,
            17.024,
            17.02,
            18.705,
            20.818,
            21.66,
            25.885,
            28.419,
            34.335,
            39.829,
            49.128,
            44.473,
            41.088,
            36.011,
            27.128,
            21.627,
            19.085,
            17.811,
            17.384,
            16.957,
            16.95,
            17.369,
            17.362,
            17.779,
            16.083,
            16.5,
            16.073,
            15.646,
            15.642,
            17.747,
            17.32,
            17.738,
            16.041,
            16.458,
            16.454,
            17.716,
            16.021,
            16.438,
            16.856,
            18.121,
            25.305,
            45.174,
            40.52,
            26.986,
            24.027,
            18.95,
            18.101,
            16.827,
            16.824,
            16.394,
            15.967,
            16.385,
            16.38,
            16.796,
            16.37,
            15.939,
            24.394,
            97.956,
            65.396,
            28.185,
            22.263,
            18.032,
            16.336,
            16.33,
            16.325,
            17.165,
            15.468,
            16.732,
            15.458,
            15.032,
            16.294,
            17.134,
            17.973,
            17.969,
            16.695,
            15.845,
            17.954,
            16.681,
            15.828,
            16.247,
            18.356,
            17.928,
            17.923,
            18.341,
            16.645,
            21.291,
            23.822,
            27.625,
            37.347,
            47.915,
            46.644,
            39.03,
            30.995,
            25.918,
            21.263,
            19.57,
            18.72,
            18.291,
            18.286,
            18.281,
            18.276,
            18.269,
            17.841,
            17.837,
            17.408,
            28.396,
            52.915,
            50.799,
            39.381,
            27.117,
            23.31,
            19.5,
            18.65,
            17.378,
            17.372,
            16.944,
            17.362,
            17.359,
            17.353,
            16.922,
            19.032,
            17.335,
            18.177,
            17.325,
            18.59,
            17.738,
            18.579,
            18.149,
            17.722,
            18.986,
            21.938,
            28.699,
            37.997,
            41.378,
            43.49,
            48.139,
            47.713,
            44.328,
            43.058,
            35.868,
            27.408,
            25.291,
            21.482,
            19.789,
            19.361,
            20.625,
            21.887,
            45.135,
            40.479,
            27.369,
            24.406,
            22.71,
            21.438,
            21.433,
            21.429,
            20.154,
            19.726,
            21.413,
            20.984,
            34.93,
            50.569,
            34.496,
            27.728,
            23.072,
            21.798,
            22.639,
            23.902,
            22.205,
            21.354,
            20.925,
            22.188,
            23.454,
            23.869,
            21.751,
            26.397,
            21.318,
            22.581,
            21.307,
            22.571,
            22.142,
            22.136,
            25.938,
            46.23,
            63.984,
            57.216,
            39.878,
            31.42,
            26.767,
            22.96,
            21.688,
            22.104,
            22.1,
            32.243,
            93.965,
            55.908,
            31.381,
            25.035,
            26.295,
            27.983,
            25.864,
            23.745,
            22.471,
            24.578,
            21.614,
            22.454,
            21.179,
            22.443,
            21.594,
            21.167,
            19.892,
            21.157,
            19.035,
            21.567,
            20.716,
            21.556,
            27.047,
            98.493,
            83.268,
            43.52,
            24.49,
            21.524,
            20.673,
            19.399,
            19.817,
            21.081,
            20.23,
            19.801,
            18.106,
            20.215,
            22.746,
            25.279,
            21.042,
            22.308,
            20.61,
            21.451,
            21.446,
            21.863,
            22.279,
            20.582,
            21.847,
            20.996,
            23.528,
            22.676,
            23.939,
            21.82,
            23.929,
            24.347,
            28.146,
            36.598,
            48.429,
            39.122,
            29.815,
            26.427,
            23.884,
            23.035,
            23.453,
            25.562,
            21.751,
            21.746,
            23.431,
            23.426,
            23.846,
            28.916,
            42.021,
            64.424,
            63.155,
            48.777,
            45.814,
            43.276,
            56.802,
            63.563,
            65.252,
            63.136,
            52.563,
            42.835,
            36.492,
            33.107,
            30.991,
            25.913,
            25.487,
            21.679,
            21.675,
            21.246,
            21.242,
            21.66,
            23.345,
            21.225,
            22.065,
            22.062,
            22.478,
            25.01,
            26.696,
            27.961,
            26.689,
            24.148,
            23.718,
            24.558,
            25.823,
            24.55,
            32.578,
            27.075,
            25.378,
            39.748,
            42.707,
            41.012,
            33.819,
            28.74,
            27.044,
            26.195,
            25.77,
            26.188,
            30.834,
            27.445,
            24.481,
            24.053,
            25.737,
            24.887,
            25.728,
            27.414,
            28.254,
            27.827,
            31.203,
            36.272,
            39.226,
            48.099,
            42.597,
            40.9,
            49.352,
            114.03,
            92.042,
            51.449,
            38.76,
            33.681,
            32.407,
            32.824,
            34.088,
            32.391,
            33.232,
            27.729,
            28.992,
            25.605,
            26.868
          ]
        ]
      }
    },
    "003": {
      "reaction": {
        "0": {
          "x4_code": "(12-MG-25(P,G)13-AL-26,PAR,DA,,REL)",
          "0": {
            "code": [
              "12-MG-25",
              [
                "P,G"
              ],
              "13-AL-26,PAR,DA,,REL"
            ],
            "type": null,
            "target": "12-MG-25",
            "process": "P,G",
            "sf49": "13-AL-26,PAR,DA,,REL",
            "sf4": "13-AL-26",
            "sf5": "PAR",
            "sf6": "DA",
            "sf7": null,
            "sf8": "REL",
            "sf9": null
          },
          "type": null,
          "free_text": "Data are given in counts per mu-Coulomb."
        }
      },
      "extra_information": {
        "en-sec": {
          "0": [
            {
              "x4_code": null,
              "free_txt": [
                "Gamma rays of energy greater than 2.8 MeV were detected"
              ]
            }
          ]
        },
        "status": {
          "0": [
            {
              "x4_code": "(CURVE)",
              "free_txt": [
                " Fig.1"
              ]
            }
          ]
        }
      },
      "common": {
        "heads": [
          "E-MIN"
        ],
        "units": [
          "MEV"
        ],
        "data": [
          [
            2.8
          ]
        ]
      },
      "data": {
        "heads": [
          "EN",
          "DATA"
        ],
        "units": [
          "MEV",
          "ARB-UNITS"
        ],
        "data": [
          [
            1.3635,
            1.3649,
            1.3664,
            1.3682,
            1.3691,
            1.3702,
            1.3717,
            1.3732,
            1.3744,
            1.3759,
            1.377,
            1.3776,
            1.378,
            1.3791,
            1.38,
            1.3806,
            1.3812,
            1.3829,
            1.3841,
            1.387,
            1.3894,
            1.3921,
            1.3953,
            1.398,
            1.4003,
            1.403,
            1.4059,
            1.4092,
            1.4118,
            1.4142,
            1.4171,
            1.4204,
            1.4227,
            1.4251,
            1.4283,
            1.4307,
            1.4336,
            1.4363,
            1.4392,
            1.4422,
            1.4451,
            1.4475,
            1.4498,
            1.4531,
            1.4545,
            1.456,
            1.4572,
            1.4584,
            1.4599,
            1.4619,
            1.4631,
            1.4643,
            1.4658,
            1.4672,
            1.4684,
            1.4699,
            1.4714,
            1.4728,
            1.4737,
            1.4758,
            1.477,
            1.4778,
            1.4796,
            1.4811,
            1.4829,
            1.484,
            1.4858,
            1.4867,
            1.4879,
            1.4896,
            1.4911,
            1.4923,
            1.4938,
            1.4949,
            1.4967,
            1.4979,
            1.4997,
            1.5008,
            1.502,
            1.5038,
            1.505,
            1.5064,
            1.5082,
            1.5088,
            1.5106,
            1.5117,
            1.5135,
            1.5141,
            1.5159,
            1.5176,
            1.5188,
            1.52,
            1.5215,
            1.5229,
            1.5244,
            1.5259,
            1.5268,
            1.5277,
            1.5306,
            1.5315,
            1.5327,
            1.5339,
            1.5353,
            1.5365,
            1.538,
            1.5395,
            1.5406,
            1.5424,
            1.5436,
            1.5453,
            1.5462,
            1.5477,
            1.5489,
            1.5501,
            1.5518,
            1.5533,
            1.5548,
            1.556,
            1.5574,
            1.5592,
            1.5604,
            1.5619,
            1.563,
            1.5645,
            1.5657,
            1.5672,
            1.5686,
            1.5698,
            1.5716,
            1.5734,
            1.5745,
            1.5754,
            1.5766,
            1.5787,
            1.5801,
            1.5807,
            1.5819,
            1.5828,
            1.584,
            1.5846,
            1.5857,
            1.5872,
            1.5878,
            1.5884,
            1.589,
            1.5896,
            1.5908,
            1.5914,
            1.5922,
            1.5931,
            1.5946,
            1.5961,
            1.5972,
            1.5987,
            1.6005,
            1.602,
            1.6031,
            1.6046,
            1.6058,
            1.607,
            1.6084,
            1.6096,
            1.6114,
            1.6126,
            1.6138,
            1.6152,
            1.6167,
            1.6191,
            1.6208,
            1.6223,
            1.6235,
            1.625,
            1.6261,
            1.6276,
            1.6285,
            1.63,
            1.6306,
            1.6315,
            1.6324,
            1.6329,
            1.6338,
            1.6347,
            1.6353,
            1.6362,
            1.6368,
            1.6373,
            1.6385,
            1.64,
            1.6412,
            1.6426,
            1.6441,
            1.6456,
            1.6471,
            1.6483,
            1.6489,
            1.6495,
            1.6499,
            1.6505,
            1.6513,
            1.6525,
            1.653,
            1.6539,
            1.6545,
            1.6553,
            1.6562,
            1.6568,
            1.6583,
            1.6597,
            1.6612,
            1.6624,
            1.6639,
            1.6653,
            1.6665,
            1.6677,
            1.6695,
            1.6707,
            1.6721,
            1.6733,
            1.6745,
            1.676,
            1.6771,
            1.6789,
            1.6804,
            1.6819,
            1.6833,
            1.6842,
            1.6863,
            1.6878,
            1.6889,
            1.6901,
            1.691,
            1.6922,
            1.6934,
            1.6945,
            1.696,
            1.6966,
            1.6978,
            1.6981,
            1.6987,
            1.6999,
            1.7014,
            1.7017,
            1.7025,
            1.7034,
            1.704,
            1.7046,
            1.7055,
            1.7063,
            1.7069,
            1.7081,
            1.7093,
            1.7108,
            1.7125,
            1.7137,
            1.7146,
            1.7165,
            1.7176,
            1.719,
            1.7208,
            1.7222,
            1.7237,
            1.7249,
            1.7264,
            1.7281,
            1.7296,
            1.7311,
            1.7323,
            1.7335,
            1.7346,
            1.7367,
            1.7379,
            1.7394,
            1.7402,
            1.742,
            1.7432,
            1.7441,
            1.7456,
            1.7467,
            1.7473,
            1.7482,
            1.7494,
            1.75,
            1.7512,
            1.7517,
            1.7526,
            1.7532,
            1.7544,
            1.7559,
            1.7573,
            1.7588,
            1.7606,
            1.7617,
            1.7632,
            1.7647,
            1.7659,
            1.7674,
            1.7688,
            1.7703,
            1.7712,
            1.7721,
            1.773,
            1.7738,
            1.7756,
            1.7771,
            1.7777,
            1.7786,
            1.7803,
            1.7818,
            1.7827,
            1.7847,
            1.7859,
            1.7868,
            1.7886,
            1.7901,
            1.7912,
            1.7927,
            1.7939,
            1.7954,
            1.7968,
            1.7977,
            1.7998,
            1.8013,
            1.8024,
            1.8042
          ],
          [
            2.9188,
            3.3437,
            4.4091,
            5.6874,
            7.6075,
            8.6732,
            10.165,
            13.366,
            13.364,
            12.295,
            12.293,
            16.135,
            35.347,
            28.514,
            20.401,
            13.569,
            10.793,
            8.2288,
            7.8002,
            5.6614,
            5.2312,
            5.868,
            4.7962,
            5.006,
            4.1488,
            5.426,
            3.9276,
            3.7097,
            4.5599,
            4.1297,
            2.4179,
            4.1212,
            2.4102,
            4.1147,
            3.2563,
            3.2531,
            2.6086,
            3.2454,
            3.2413,
            2.8103,
            3.0197,
            3.0165,
            3.0132,
            2.3683,
            2.3663,
            2.5777,
            3.003,
            3.6418,
            2.5724,
            3.4235,
            2.9949,
            3.2068,
            3.2047,
            3.2027,
            3.2011,
            3.626,
            3.4105,
            2.768,
            3.1937,
            3.4044,
            3.1893,
            3.1881,
            2.9722,
            2.9701,
            3.8216,
            2.9661,
            2.9636,
            2.322,
            3.1742,
            3.3853,
            3.3832,
            3.1681,
            2.5257,
            3.1645,
            2.9486,
            3.5874,
            3.3715,
            2.9429,
            3.1547,
            2.5119,
            3.3641,
            3.3621,
            2.5058,
            3.1454,
            3.1429,
            3.1413,
            2.7119,
            3.3515,
            3.5626,
            3.7736,
            3.772,
            3.5569,
            3.3414,
            3.7663,
            3.5508,
            4.8296,
            6.5361,
            9.3101,
            5.4635,
            3.968,
            3.5394,
            3.3243,
            3.5357,
            3.3207,
            2.8917,
            3.3166,
            2.888,
            2.6721,
            2.884,
            2.2411,
            2.8803,
            2.4513,
            3.3036,
            3.5154,
            3.7265,
            3.7244,
            3.082,
            2.4399,
            2.4379,
            3.2894,
            3.7147,
            3.0722,
            2.8571,
            3.4955,
            2.8535,
            2.8514,
            3.0629,
            3.9151,
            3.2723,
            3.4833,
            3.6952,
            2.8401,
            2.8384,
            2.8356,
            3.2605,
            3.4732,
            5.3928,
            4.1107,
            4.536,
            3.8948,
            3.6797,
            4.1046,
            4.9577,
            13.069,
            25.022,
            21.179,
            14.133,
            8.7953,
            5.8055,
            4.5234,
            3.881,
            3.879,
            3.4504,
            3.6618,
            3.8729,
            4.2978,
            4.9366,
            4.7211,
            4.506,
            4.0774,
            3.435,
            4.0737,
            4.9252,
            5.3505,
            4.9219,
            5.3469,
            4.7044,
            4.2742,
            4.9122,
            5.9775,
            5.9759,
            5.5469,
            6.1857,
            5.7567,
            5.969,
            5.54,
            7.247,
            10.875,
            15.57,
            16.636,
            15.781,
            11.938,
            9.8021,
            9.1605,
            8.0923,
            6.1703,
            6.1686,
            6.3801,
            5.5246,
            5.5225,
            6.1609,
            7.2262,
            7.8646,
            12.986,
            20.244,
            29.636,
            67.206,
            67.632,
            52.048,
            35.609,
            24.294,
            16.608,
            12.764,
            10.201,
            9.1329,
            6.9973,
            7.4222,
            6.1394,
            6.3508,
            6.3492,
            6.7741,
            5.7047,
            6.9839,
            6.3419,
            6.3394,
            6.5513,
            7.1897,
            6.9746,
            6.7595,
            7.1844,
            8.6771,
            7.3938,
            7.3917,
            8.6705,
            7.8146,
            7.8134,
            7.8106,
            8.022,
            8.6608,
            8.4457,
            9.0849,
            10.151,
            9.5086,
            10.361,
            11.426,
            12.706,
            16.761,
            24.659,
            36.185,
            43.655,
            36.182,
            29.137,
            20.597,
            15.685,
            14.19,
            11.841,
            10.346,
            10.131,
            9.2764,
            7.7805,
            7.7789,
            8.2038,
            8.4148,
            19.514,
            110.03,
            76.934,
            34.665,
            15.877,
            10.538,
            8.4014,
            8.8263,
            8.1843,
            8.3957,
            8.1798,
            8.6047,
            9.4566,
            7.9606,
            9.0264,
            8.5978,
            9.2354,
            9.8742,
            10.939,
            11.792,
            12.644,
            13.923,
            14.989,
            14.987,
            14.345,
            17.973,
            20.32,
            16.262,
            13.7,
            12.418,
            11.349,
            9.4269,
            10.707,
            9.6379,
            8.9955,
            9.4204,
            9.8453,
            7.9216,
            6.8526,
            7.7045,
            8.9833,
            8.1278,
            8.3392,
            7.6968,
            5.987,
            7.6935,
            10.894,
            13.028,
            11.532,
            12.811,
            10.034,
            8.7519,
            7.6834,
            7.254,
            7.4654,
            6.3968,
            7.0344,
            6.1789,
            7.245,
            7.0291,
            6.8136,
            6.1716,
            6.5965,
            6.3814,
            6.1659,
            7.2312,
            7.23,
            5.9463,
            7.0116,
            6.7965,
            7.4345
          ]
        ]
      }
    }
  }
}