{
  "entry": "21964",
  "last_updated": "2017-02-01",
  "number_of_revisions": "4",
  "histories": [
    {
      "x4_code": "(19850401U)",
      "free_txt": [
        "HH."
      ]
    },
    {
      "x4_code": "(19850723E)",
      "free_txt": []
    },
    {
      "x4_code": "(20161001A)",
      "free_txt": [
        " SD:Updated to new date formats,lower case.",
        "Ref.NEANDC(J)-83U,47 was added. Small corrections.",
        "MONITOR deleted, information moved to DETECTOR.",
        "BIB update. ERR-T -> ERR-S."
      ]
    }
  ],
  "bib_record": {
    "title": " Neutron total cross-section measurement of 232-Th in the off-resonance region below 300 eV",
    "authors": [
      {
        "name": "K.Kobayashi"
      },
      {
        "name": "I.Fujita"
      },
      {
        "name": "N.Yamamuro"
      }
    ],
    "institutes": [
      {
        "x4_code": "(2JPNKTO)",
        "free_txt": [
          "Kyoto University K.K., Y.F. experimental site"
        ]
      },
      {
        "x4_code": "(2JPNTIT)",
        "free_txt": [
          " Tokyo Institute of Technology N.Y."
        ]
      }
    ],
    "references": [
      {
        "x4_code": "(J,ANE,11,315,1984)",
        "free_txt": [
          " Annals of nuclear energy"
        ],
        "publication_year": "1984",
        "pointer": "0"
      },
      {
        "x4_code": "(P,NEANDC(J)-83U,47,1983)",
        "free_txt": [
          " short report."
        ],
        "publication_year": "1983",
        "pointer": "0"
      }
    ],
    "facilities": [
      {
        "x4_code": "(LINAC,2JPNKTO)",
        "free_txt": [
          "46 MeV electron linac KURRI"
        ],
        "pointer": "0",
        "facility_type": "(LINAC)",
        "institute": "(2JPNKTO)"
      }
    ]
  },
  "reactions": {
    "002": {
      "0": {
        "x4_code": "(90-TH-232(N,TOT),,SIG)",
        "children": [
          {
            "code": [
              "90-TH-232",
              [
                "N,TOT"
              ],
              ",,SIG"
            ],
            "type": null,
            "target": "90-TH-232",
            "process": "N,TOT",
            "sf49": ",,SIG",
            "sf4": null,
            "sf5": null,
            "sf6": "SIG",
            "sf7": null,
            "sf8": null,
            "sf9": null
          }
        ],
        "type": null,
        "free_text": ""
      }
    }
  },
  "data_tables": {
    "001": {
      "common": {
        "heads": [
          "ERR-1"
        ],
        "units": [
          "PER-CENT"
        ],
        "data": [
          [
            1.0
          ]
        ]
      }
    },
    "002": {
      "common": null,
      "data": {
        "heads": [
          "EN-MAX",
          "EN-MIN",
          "DATA",
          "ERR-S"
        ],
        "units": [
          "EV",
          "EV",
          "B",
          "B"
        ],
        "data": [
          [
            0.0040973,
            0.0043074,
            0.0045283,
            0.0047604,
            0.0050045,
            0.0052611,
            0.0055308,
            0.0058144,
            0.0061125,
            0.0064259,
            0.0067554,
            0.0071017,
            0.0074658,
            0.0078486,
            0.008251,
            0.0086741,
            0.0091188,
            0.0095863,
            0.010078,
            0.010595,
            0.011138,
            0.011709,
            0.012309,
            0.01294,
            0.013604,
            0.014301,
            0.015034,
            0.015805,
            0.016616,
            0.017467,
            0.018363,
            0.019304,
            0.020294,
            0.021335,
            0.022429,
            0.023579,
            0.024787,
            0.026058,
            0.027394,
            0.028799,
            0.030275,
            0.031828,
            0.03346,
            0.035175,
            0.036979,
            0.038874,
            0.040868,
            0.042963,
            0.045166,
            0.047481,
            0.049916,
            0.052475,
            0.055165,
            0.057994,
            0.060967,
            0.064093,
            0.067379,
            0.070834,
            0.074466,
            0.078284,
            0.082297,
            0.086517,
            0.090953,
            0.095616,
            0.10052,
            0.10567,
            0.11109,
            0.11679,
            0.12277,
            0.12907,
            0.13569,
            0.14264,
            0.14996,
            0.15764,
            0.16573,
            0.17422,
            0.18316,
            0.19255,
            0.20242,
            0.2128,
            0.22371,
            0.23518,
            0.24723,
            0.25991,
            0.27324,
            0.28725,
            0.30197,
            0.31746,
            0.33373,
            0.35084,
            0.36883,
            0.38774,
            0.40762,
            0.42852,
            0.45049,
            0.47359,
            0.49787,
            0.5234,
            0.55023,
            0.57844,
            0.6081,
            0.63928,
            0.67205,
            0.70651,
            0.74273,
            0.78082,
            0.82085,
            0.86293,
            0.90718,
            0.95369,
            1.0026,
            1.054,
            1.108,
            1.1648,
            1.2246,
            1.2873,
            1.3534,
            1.4227,
            1.4957,
            1.5724,
            1.653,
            1.7377,
            1.8268,
            1.9205,
            2.019,
            2.1225,
            2.2313,
            2.466,
            2.5924,
            2.5924,
            2.7253,
            2.865,
            3.0119,
            3.1664,
            3.3287,
            3.4994,
            3.6788,
            3.8674,
            4.0657,
            4.2741,
            4.4933,
            4.7237,
            4.9658,
            5.2205,
            5.4881,
            5.7695,
            6.0653,
            6.3763,
            6.7032,
            7.0469,
            7.4082,
            7.788,
            8.1873,
            8.6071,
            9.0484,
            9.5123,
            10.0,
            10.513,
            11.052,
            11.618,
            12.214,
            12.84,
            13.499,
            14.191,
            14.918,
            15.683,
            16.487,
            17.333,
            18.221,
            19.064,
            19.155,
            19.255,
            19.449,
            19.644,
            19.842,
            20.041,
            20.138,
            20.242,
            20.446,
            20.651,
            20.859,
            21.069,
            21.28,
            21.494,
            21.71,
            21.928,
            22.149,
            22.371,
            22.596,
            22.823,
            23.053,
            23.284,
            23.518,
            23.755,
            23.993,
            24.235,
            24.478,
            24.724,
            24.973,
            25.224,
            25.477,
            25.733,
            25.992,
            26.253,
            26.517,
            26.783,
            27.052,
            27.324,
            27.599,
            27.876,
            28.157,
            28.439,
            28.725,
            29.014,
            29.306,
            29.6,
            29.898,
            30.198,
            30.502,
            30.808,
            31.118,
            31.43,
            31.746,
            32.065,
            32.388,
            32.713,
            33.042,
            33.374,
            33.709,
            34.048,
            34.39,
            34.736,
            35.085,
            35.438,
            35.794,
            36.154,
            36.517,
            36.884,
            37.255,
            37.629,
            38.007,
            38.389,
            38.775,
            39.165,
            39.558,
            39.956,
            40.357,
            40.763,
            41.173,
            41.587,
            42.004,
            42.427,
            42.853,
            43.284,
            43.719,
            44.158,
            44.602,
            45.05,
            45.503,
            45.96,
            46.422,
            46.889,
            47.36,
            47.836,
            48.317,
            48.802,
            49.293,
            49.788,
            50.288,
            50.794,
            51.304,
            51.82,
            52.341,
            52.867,
            53.398,
            53.935,
            54.477,
            55.024,
            55.577,
            56.136,
            56.7,
            57.27,
            57.845,
            58.427,
            59.014,
            59.607,
            60.206,
            60.811,
            61.422,
            62.04,
            62.663,
            63.293,
            63.929,
            64.572,
            65.22,
            65.876,
            66.538,
            67.207,
            67.882,
            68.564,
            69.253,
            69.949,
            70.652,
            71.363,
            72.08,
            72.804,
            73.536,
            74.275,
            75.021,
            75.775,
            76.537,
            77.306,
            78.083,
            78.868,
            79.66,
            80.461,
            81.27,
            82.086,
            82.911,
            83.745,
            84.586,
            85.436,
            86.295,
            87.162,
            88.038,
            88.923,
            89.817,
            90.719,
            91.631,
            92.552,
            93.482,
            94.422,
            95.371,
            96.329,
            97.297,
            98.275,
            99.263,
            100.26,
            101.27,
            102.29,
            103.31,
            104.35,
            105.4,
            106.46,
            107.53,
            108.61,
            109.7,
            110.8,
            111.92,
            113.04,
            114.18,
            115.33,
            116.49,
            117.66,
            118.84,
            120.03,
            121.24,
            122.46,
            123.69,
            124.93,
            126.19,
            127.46,
            128.74,
            130.03,
            131.34,
            132.66,
            133.99,
            135.34,
            136.7,
            138.07,
            139.46,
            140.86,
            142.28,
            143.71,
            145.15,
            146.61,
            148.08,
            149.57,
            151.07,
            152.59,
            154.13,
            155.67,
            157.24,
            158.82,
            160.42,
            162.03,
            163.66,
            165.3,
            166.96,
            168.64,
            170.34,
            172.05,
            173.78,
            175.52,
            177.29,
            179.07,
            180.87,
            182.69,
            184.52,
            186.38,
            188.25,
            190.14,
            192.05,
            193.98,
            195.93,
            197.9,
            199.89,
            201.9,
            203.93,
            205.98,
            208.05,
            210.14,
            212.25,
            214.38,
            216.54,
            218.71,
            220.91,
            223.13,
            225.37,
            227.64,
            229.93,
            232.24,
            234.57,
            236.93,
            239.31,
            241.72,
            244.15,
            246.6,
            249.08,
            251.58,
            254.11,
            256.66,
            259.24,
            261.85,
            264.48,
            267.14,
            269.82,
            272.53,
            275.27,
            278.04,
            280.83,
            283.66,
            286.51,
            289.39,
            292.29,
            295.23,
            298.2,
            301.2,
            304.22,
            307.28,
            310.37,
            313.49,
            316.64,
            319.82,
            323.04,
            326.28,
            329.56,
            332.87,
            336.22,
            339.6,
            343.01,
            346.46,
            349.94,
            353.46,
            357.01,
            360.6,
            364.22,
            367.88,
            371.58,
            375.31,
            379.09,
            382.9,
            386.74,
            390.63,
            394.56,
            398.52,
            402.53,
            406.57,
            410.66,
            414.79,
            418.95,
            423.16,
            427.42,
            431.71,
            436.05,
            440.43,
            444.86,
            449.33,
            453.85,
            458.41,
            463.02,
            467.67,
            472.37,
            477.12,
            481.91,
            486.75,
            491.65,
            496.59,
            501.58,
            506.62,
            511.71,
            516.85,
            522.05,
            527.29,
            532.59,
            537.95,
            543.35,
            548.81,
            554.33,
            559.9,
            565.53,
            571.21,
            576.95,
            582.75,
            588.61,
            594.52,
            600.5,
            606.53,
            612.63,
            618.79,
            625.0,
            631.29,
            637.63,
            644.04,
            650.51,
            657.05,
            663.65,
            670.32,
            677.06,
            683.86,
            690.74,
            697.68,
            704.69,
            711.77,
            718.93,
            726.15,
            733.45,
            740.82,
            748.27,
            755.79,
            763.38,
            771.05,
            778.8,
            786.63,
            794.53,
            802.52,
            810.59,
            818.73,
            826.96,
            835.27,
            843.67,
            852.14,
            860.71,
            869.36,
            878.1,
            886.92,
            895.83,
            904.84,
            913.93,
            923.12,
            932.39,
            941.77,
            951.23,
            960.79,
            970.45,
            980.2,
            990.05,
            1000.0
          ],
          [
            0.0038975,
            0.0040973,
            0.0043074,
            0.0045283,
            0.0047604,
            0.0050045,
            0.0052611,
            0.0055308,
            0.0058144,
            0.0061125,
            0.0064259,
            0.0067554,
            0.0071017,
            0.0074658,
            0.0078486,
            0.008251,
            0.0086741,
            0.0091188,
            0.0095863,
            0.010078,
            0.010595,
            0.011138,
            0.011709,
            0.012309,
            0.01294,
            0.013604,
            0.014301,
            0.015034,
            0.015805,
            0.016616,
            0.017467,
            0.018363,
            0.019304,
            0.020294,
            0.021335,
            0.022429,
            0.023579,
            0.024787,
            0.026058,
            0.027394,
            0.028799,
            0.030275,
            0.031828,
            0.03346,
            0.035175,
            0.036979,
            0.038874,
            0.040868,
            0.042963,
            0.045166,
            0.047481,
            0.049916,
            0.052475,
            0.055165,
            0.057994,
            0.060967,
            0.064093,
            0.067379,
            0.070834,
            0.074466,
            0.078284,
            0.082297,
            0.086517,
            0.090953,
            0.095616,
            0.10052,
            0.10567,
            0.11109,
            0.11679,
            0.12277,
            0.12907,
            0.13569,
            0.14264,
            0.14996,
            0.15764,
            0.16573,
            0.17422,
            0.18316,
            0.19255,
            0.20242,
            0.2128,
            0.22371,
            0.23518,
            0.24723,
            0.25991,
            0.27324,
            0.28725,
            0.30197,
            0.31746,
            0.33373,
            0.35084,
            0.36883,
            0.38774,
            0.40762,
            0.42852,
            0.45049,
            0.47359,
            0.49787,
            0.5234,
            0.55023,
            0.57844,
            0.6081,
            0.63928,
            0.67205,
            0.70651,
            0.74273,
            0.78082,
            0.82085,
            0.86293,
            0.90718,
            0.95369,
            1.0026,
            1.054,
            1.108,
            1.1648,
            1.2246,
            1.2873,
            1.3534,
            1.4227,
            1.4957,
            1.5724,
            1.653,
            1.7377,
            1.8268,
            1.9205,
            2.019,
            2.1225,
            2.3457,
            2.466,
            2.466,
            2.5924,
            2.7253,
            2.865,
            3.012,
            3.1664,
            3.3287,
            3.4994,
            3.6788,
            3.8674,
            4.0656,
            4.2742,
            4.4933,
            4.7236,
            4.9659,
            5.2204,
            5.4881,
            5.7695,
            6.0653,
            6.3763,
            6.7032,
            7.0469,
            7.4082,
            7.788,
            8.1873,
            8.6071,
            9.0484,
            9.5123,
            10.0,
            10.513,
            11.051,
            11.618,
            12.214,
            12.841,
            13.499,
            14.19,
            14.918,
            15.683,
            16.488,
            17.332,
            18.874,
            18.221,
            19.063,
            19.255,
            19.449,
            19.645,
            19.842,
            19.156,
            20.041,
            20.243,
            20.446,
            20.651,
            20.859,
            21.068,
            21.28,
            21.494,
            21.71,
            21.929,
            22.148,
            22.371,
            22.596,
            22.824,
            23.052,
            23.284,
            23.519,
            23.754,
            23.994,
            24.234,
            24.478,
            24.725,
            24.973,
            25.224,
            25.477,
            25.733,
            25.992,
            26.253,
            26.517,
            26.783,
            27.052,
            27.324,
            27.599,
            27.877,
            28.156,
            28.439,
            28.725,
            29.014,
            29.305,
            29.601,
            29.898,
            30.199,
            30.501,
            30.808,
            31.117,
            31.43,
            31.746,
            32.066,
            32.388,
            32.713,
            33.042,
            33.374,
            33.709,
            34.048,
            34.39,
            34.736,
            35.085,
            35.438,
            35.794,
            36.154,
            36.517,
            36.884,
            37.255,
            37.629,
            38.007,
            38.389,
            38.775,
            39.164,
            39.558,
            39.955,
            40.357,
            40.763,
            41.173,
            41.586,
            42.005,
            42.427,
            42.853,
            43.284,
            43.719,
            44.158,
            44.602,
            45.05,
            45.503,
            45.96,
            46.422,
            46.889,
            47.36,
            47.836,
            48.316,
            48.803,
            49.293,
            49.788,
            50.289,
            50.794,
            51.304,
            51.82,
            52.341,
            52.867,
            53.398,
            53.935,
            54.477,
            55.024,
            55.577,
            56.136,
            56.7,
            57.269,
            57.846,
            58.427,
            59.014,
            59.607,
            60.206,
            60.811,
            61.423,
            62.039,
            62.663,
            63.293,
            63.93,
            64.571,
            65.221,
            65.876,
            66.538,
            67.207,
            67.882,
            68.564,
            69.253,
            69.949,
            70.653,
            71.363,
            72.08,
            72.804,
            73.536,
            74.275,
            75.021,
            75.775,
            76.537,
            77.306,
            78.083,
            78.867,
            79.66,
            80.461,
            81.269,
            82.086,
            82.912,
            83.744,
            84.586,
            85.436,
            86.295,
            87.162,
            88.038,
            88.923,
            89.816,
            90.719,
            91.631,
            92.552,
            93.482,
            94.422,
            95.371,
            96.329,
            97.297,
            98.275,
            99.262,
            100.26,
            101.27,
            102.28,
            103.31,
            104.35,
            105.4,
            106.46,
            107.53,
            108.61,
            109.7,
            110.81,
            111.92,
            113.04,
            114.18,
            115.33,
            116.49,
            117.66,
            118.84,
            120.03,
            121.24,
            122.46,
            123.69,
            124.93,
            126.19,
            127.46,
            128.74,
            130.03,
            131.34,
            132.66,
            133.99,
            135.34,
            136.7,
            138.07,
            139.46,
            140.86,
            142.28,
            143.71,
            145.15,
            146.61,
            148.08,
            149.57,
            151.07,
            152.6,
            154.12,
            155.68,
            157.24,
            158.82,
            160.42,
            162.03,
            163.66,
            165.3,
            166.96,
            168.65,
            170.34,
            172.05,
            173.77,
            175.53,
            177.29,
            179.07,
            180.87,
            182.68,
            184.53,
            186.38,
            188.25,
            190.14,
            192.05,
            193.98,
            195.93,
            197.9,
            199.89,
            201.9,
            203.93,
            205.98,
            208.05,
            210.14,
            212.25,
            214.39,
            216.53,
            218.71,
            220.91,
            223.13,
            225.37,
            227.64,
            229.93,
            232.24,
            234.57,
            236.93,
            239.31,
            241.72,
            244.15,
            246.6,
            249.08,
            251.58,
            254.11,
            256.66,
            259.24,
            261.85,
            264.48,
            267.14,
            269.82,
            272.53,
            275.27,
            278.04,
            280.84,
            283.66,
            286.51,
            289.38,
            292.29,
            295.23,
            298.2,
            301.19,
            304.22,
            307.28,
            310.37,
            313.49,
            316.64,
            319.83,
            323.03,
            326.28,
            329.56,
            332.87,
            336.22,
            339.6,
            343.01,
            346.46,
            349.94,
            353.46,
            357.01,
            360.6,
            364.22,
            367.88,
            371.58,
            375.32,
            379.09,
            382.89,
            386.74,
            390.63,
            394.55,
            398.52,
            402.52,
            406.57,
            410.66,
            414.78,
            418.95,
            423.17,
            427.41,
            431.71,
            436.05,
            440.43,
            444.86,
            449.33,
            453.85,
            458.41,
            463.02,
            467.67,
            472.37,
            477.11,
            481.91,
            486.76,
            491.65,
            496.59,
            501.58,
            506.62,
            511.71,
            516.86,
            522.04,
            527.29,
            532.6,
            537.94,
            543.35,
            548.81,
            554.33,
            559.9,
            565.53,
            571.21,
            576.95,
            582.75,
            588.6,
            594.52,
            600.49,
            606.53,
            612.63,
            618.78,
            625.01,
            631.29,
            637.63,
            644.04,
            650.51,
            657.05,
            663.65,
            670.32,
            677.06,
            683.87,
            690.74,
            697.68,
            704.69,
            711.78,
            718.92,
            726.15,
            733.45,
            740.82,
            748.27,
            755.78,
            763.38,
            771.05,
            778.8,
            786.62,
            794.53,
            802.52,
            810.58,
            818.73,
            826.96,
            835.28,
            843.66,
            852.15,
            860.71,
            869.36,
            878.1,
            886.92,
            895.84,
            904.84,
            913.93,
            923.11,
            932.4,
            941.77,
            951.23,
            960.79,
            970.45,
            980.2,
            990.05
          ],
          [
            25.679,
            28.058,
            24.921,
            23.756,
            23.284,
            21.253,
            20.979,
            23.91,
            21.64,
            23.245,
            24.164,
            23.248,
            21.346,
            21.316,
            20.783,
            21.39,
            24.309,
            23.392,
            22.523,
            22.832,
            21.592,
            21.299,
            20.343,
            20.891,
            20.635,
            19.305,
            19.041,
            19.519,
            20.691,
            20.374,
            20.48,
            20.274,
            19.715,
            19.321,
            19.502,
            19.886,
            19.436,
            19.17,
            18.689,
            19.474,
            19.34,
            19.081,
            18.971,
            18.963,
            18.63,
            18.186,
            18.22,
            18.059,
            17.822,
            17.771,
            17.586,
            17.458,
            17.457,
            17.319,
            17.157,
            16.953,
            17.14,
            16.987,
            16.731,
            16.507,
            16.59,
            16.34,
            16.324,
            16.183,
            16.127,
            16.142,
            16.11,
            15.992,
            15.933,
            15.652,
            15.677,
            15.652,
            15.688,
            15.54,
            15.391,
            15.256,
            15.425,
            15.114,
            14.984,
            15.102,
            15.129,
            14.992,
            14.752,
            14.817,
            14.634,
            14.829,
            14.778,
            14.66,
            14.688,
            14.493,
            14.204,
            14.394,
            14.427,
            14.489,
            14.376,
            14.278,
            14.186,
            14.094,
            14.195,
            13.878,
            13.938,
            13.662,
            13.919,
            13.899,
            13.72,
            13.885,
            13.798,
            13.586,
            13.669,
            13.562,
            13.58,
            13.559,
            13.414,
            13.174,
            13.444,
            13.357,
            13.308,
            13.334,
            13.356,
            13.083,
            12.99,
            13.041,
            12.977,
            12.8,
            12.877,
            12.731,
            12.586,
            12.704,
            12.717,
            12.652,
            12.711,
            12.577,
            12.529,
            12.374,
            12.517,
            12.386,
            12.576,
            12.416,
            12.15,
            12.279,
            11.959,
            12.127,
            12.251,
            12.118,
            12.124,
            12.156,
            12.038,
            11.748,
            11.988,
            12.027,
            11.721,
            11.735,
            11.867,
            11.719,
            11.579,
            11.357,
            11.493,
            11.426,
            11.234,
            11.222,
            11.299,
            11.129,
            11.294,
            10.814,
            10.999,
            10.724,
            10.638,
            10.384,
            10.174,
            10.428,
            10.129,
            10.413,
            10.3,
            10.036,
            10.258,
            10.011,
            9.8305,
            9.849,
            10.023,
            9.7113,
            10.152,
            10.625,
            11.643,
            17.044,
            59.821,
            103.25,
            41.739,
            20.797,
            16.266,
            15.623,
            19.611,
            48.129,
            136.33,
            70.213,
            35.468,
            25.513,
            20.036,
            17.73,
            16.293,
            15.357,
            15.045,
            14.186,
            13.848,
            13.696,
            13.35,
            13.131,
            13.066,
            12.928,
            12.714,
            12.646,
            12.327,
            12.298,
            12.395,
            12.389,
            12.093,
            12.109,
            12.177,
            11.872,
            11.768,
            12.183,
            11.938,
            11.914,
            11.772,
            11.899,
            11.69,
            11.579,
            11.499,
            11.41,
            11.367,
            11.32,
            11.692,
            11.585,
            11.494,
            11.252,
            11.136,
            11.163,
            11.535,
            11.89,
            11.357,
            11.198,
            11.255,
            11.29,
            11.173,
            11.166,
            11.157,
            11.135,
            10.932,
            10.938,
            11.042,
            11.208,
            10.828,
            10.641,
            10.669,
            10.872,
            10.858,
            10.988,
            11.013,
            10.655,
            10.578,
            10.768,
            10.634,
            10.628,
            10.722,
            10.454,
            10.529,
            10.337,
            10.13,
            10.551,
            10.461,
            10.256,
            10.155,
            10.033,
            9.848,
            10.05,
            10.154,
            9.8607,
            9.9201,
            9.851,
            9.5799,
            9.4858,
            8.9573,
            9.0634,
            8.6428,
            8.7251,
            11.895,
            50.435,
            17.903,
            11.626,
            10.326,
            9.7074,
            9.4427,
            8.3805,
            8.2659,
            7.8061,
            6.9953,
            6.2945,
            5.953,
            5.2868,
            6.5865,
            18.813,
            89.984,
            70.401,
            48.581,
            30.682,
            24.32,
            21.035,
            19.068,
            18.033,
            17.276,
            16.115,
            15.109,
            15.195,
            14.267,
            14.412,
            13.804,
            13.521,
            13.724,
            13.539,
            12.893,
            12.971,
            12.907,
            12.808,
            12.56,
            12.331,
            12.437,
            12.567,
            13.055,
            12.1,
            12.128,
            12.15,
            12.258,
            11.841,
            11.716,
            11.923,
            11.673,
            11.416,
            11.824,
            11.36,
            11.06,
            11.202,
            11.778,
            11.097,
            10.764,
            10.502,
            10.426,
            10.34,
            10.042,
            8.8798,
            8.6584,
            24.175,
            23.478,
            13.816,
            11.346,
            10.248,
            9.6228,
            8.7131,
            39.627,
            27.487,
            17.408,
            14.57,
            13.428,
            13.333,
            16.65,
            19.485,
            14.427,
            12.917,
            12.568,
            12.455,
            12.22,
            11.926,
            11.509,
            11.95,
            11.398,
            11.754,
            11.62,
            12.275,
            11.381,
            11.225,
            10.738,
            10.845,
            12.266,
            11.366,
            10.595,
            9.7576,
            9.6722,
            9.4418,
            8.9752,
            7.8503,
            7.3396,
            6.1135,
            20.922,
            35.535,
            19.363,
            17.389,
            14.431,
            14.296,
            13.374,
            12.531,
            12.234,
            11.896,
            11.591,
            10.428,
            13.912,
            18.754,
            14.194,
            12.723,
            18.8,
            15.027,
            13.74,
            12.8,
            12.195,
            11.767,
            11.689,
            11.033,
            10.905,
            9.3245,
            13.779,
            20.008,
            14.354,
            13.374,
            12.199,
            11.96,
            11.791,
            11.849,
            11.361,
            11.473,
            10.618,
            9.9473,
            9.5553,
            14.002,
            16.939,
            13.472,
            11.394,
            10.801,
            19.435,
            15.21,
            12.897,
            12.174,
            11.409,
            10.983,
            10.206,
            9.0266,
            18.287,
            15.051,
            13.489,
            11.814,
            12.01,
            10.572,
            10.923,
            17.659,
            13.36,
            11.743,
            11.269,
            10.357,
            9.0184,
            8.3659,
            14.34,
            18.898,
            13.31,
            11.811,
            19.828,
            15.246,
            13.446,
            13.116,
            12.813,
            11.096,
            13.083,
            18.737,
            19.009,
            14.323,
            13.779,
            13.429,
            13.077,
            12.54,
            12.815,
            12.111,
            17.354,
            13.385,
            12.999,
            12.209,
            12.093,
            12.777,
            12.007,
            11.432,
            11.651,
            11.106,
            11.866,
            10.857,
            10.664,
            10.105,
            13.577,
            14.451,
            13.558,
            11.774,
            11.923,
            12.206,
            16.751,
            14.464,
            13.47,
            12.625,
            15.027,
            12.621,
            11.467,
            14.187,
            14.43,
            12.596,
            12.607,
            11.769,
            10.978,
            11.463,
            10.975,
            13.193,
            14.349,
            12.379,
            11.246,
            12.301,
            13.065,
            10.815,
            11.555,
            12.231,
            10.477,
            10.662,
            10.138,
            9.1065,
            8.716,
            10.838,
            10.753,
            9.1457,
            18.034,
            14.639,
            18.097,
            14.22,
            13.26,
            14.675,
            13.339,
            10.468,
            8.4098,
            14.003,
            17.705,
            13.953,
            13.847,
            12.908,
            13.852,
            11.427,
            10.108,
            12.611,
            17.118,
            15.247,
            13.981,
            13.342,
            14.129,
            14.07,
            13.178,
            13.541,
            12.833,
            13.632,
            13.502,
            12.28,
            13.149,
            12.596,
            11.875,
            11.632,
            13.015,
            12.24,
            11.397,
            10.711,
            14.542,
            13.105
          ],
          [
            0.76884,
            0.77297,
            0.68564,
            0.65076,
            0.5898,
            0.5372,
            0.49827,
            0.50325,
            0.4627,
            0.45005,
            0.43194,
            0.41036,
            0.3916,
            0.34725,
            0.33591,
            0.33018,
            0.34506,
            0.32418,
            0.29279,
            0.29084,
            0.26768,
            0.24429,
            0.23654,
            0.22098,
            0.20574,
            0.1843,
            0.1786,
            0.17108,
            0.16793,
            0.1567,
            0.15578,
            0.14625,
            0.13578,
            0.12941,
            0.13306,
            0.12509,
            0.11696,
            0.11057,
            0.10368,
            0.10792,
            0.09644,
            0.097964,
            0.093185,
            0.097165,
            0.085539,
            0.08742,
            0.077494,
            0.080121,
            0.077301,
            0.074676,
            0.079043,
            0.069754,
            0.074165,
            0.072248,
            0.063956,
            0.068056,
            0.075577,
            0.066475,
            0.064988,
            0.07156,
            0.063279,
            0.070167,
            0.069767,
            0.069994,
            0.070188,
            0.070751,
            0.071582,
            0.072543,
            0.084791,
            0.074846,
            0.088469,
            0.07866,
            0.093807,
            0.095642,
            0.098529,
            0.10113,
            0.10482,
            0.10693,
            0.10965,
            0.11223,
            0.13866,
            0.11468,
            0.14,
            0.11355,
            0.13699,
            0.11104,
            0.13558,
            0.13295,
            0.1312,
            0.10597,
            0.12914,
            0.12831,
            0.12756,
            0.12643,
            0.12411,
            0.17456,
            0.12233,
            0.12057,
            0.11885,
            0.16605,
            0.11608,
            0.16136,
            0.11263,
            0.1111,
            0.15474,
            0.15306,
            0.10775,
            0.14867,
            0.10472,
            0.14584,
            0.14363,
            0.14272,
            0.09903,
            0.13771,
            0.13696,
            0.13464,
            0.13329,
            0.13196,
            0.13072,
            0.12829,
            0.12759,
            0.12485,
            0.12313,
            0.12132,
            0.12093,
            0.11873,
            0.11606,
            0.11514,
            0.048438,
            0.11352,
            0.047783,
            0.048442,
            0.048608,
            0.048612,
            0.049052,
            0.04903,
            0.048498,
            0.049627,
            0.048298,
            0.049393,
            0.04953,
            0.048909,
            0.049638,
            0.049284,
            0.050161,
            0.049694,
            0.05092,
            0.050682,
            0.049761,
            0.050895,
            0.050053,
            0.050394,
            0.050506,
            0.051578,
            0.051258,
            0.051601,
            0.050809,
            0.051258,
            0.051884,
            0.05182,
            0.052378,
            0.051484,
            0.052627,
            0.05357,
            0.051449,
            0.053998,
            0.052851,
            0.053436,
            0.053731,
            0.059107,
            0.052562,
            0.064747,
            0.05881,
            0.059134,
            0.058778,
            0.062051,
            0.053189,
            0.064486,
            0.058425,
            0.058885,
            0.063262,
            0.060088,
            0.069797,
            0.075543,
            0.35725,
            0.93519,
            0.18022,
            0.081941,
            0.083968,
            0.068539,
            0.079146,
            0.24723,
            2.3762,
            0.52882,
            0.16879,
            0.095485,
            0.084604,
            0.081347,
            0.071112,
            0.07382,
            0.075011,
            0.070482,
            0.073218,
            0.064548,
            0.076306,
            0.064023,
            0.075663,
            0.065602,
            0.07725,
            0.075462,
            0.066489,
            0.069819,
            0.06653,
            0.069589,
            0.065827,
            0.069201,
            0.07263,
            0.062312,
            0.074003,
            0.062025,
            0.07336,
            0.065489,
            0.067479,
            0.065931,
            0.068087,
            0.072657,
            0.06526,
            0.067264,
            0.064475,
            0.068344,
            0.07207,
            0.063987,
            0.067617,
            0.072233,
            0.064978,
            0.067457,
            0.071422,
            0.065473,
            0.067258,
            0.071691,
            0.064439,
            0.067517,
            0.071544,
            0.071161,
            0.064484,
            0.065783,
            0.071745,
            0.071825,
            0.063877,
            0.06677,
            0.071691,
            0.072293,
            0.063591,
            0.066726,
            0.071019,
            0.070166,
            0.063728,
            0.071907,
            0.065782,
            0.070589,
            0.071076,
            0.070074,
            0.06364,
            0.070867,
            0.065675,
            0.070491,
            0.069951,
            0.069738,
            0.069573,
            0.062661,
            0.069418,
            0.064625,
            0.070999,
            0.069009,
            0.069359,
            0.068841,
            0.068896,
            0.068999,
            0.068386,
            0.061665,
            0.068946,
            0.067652,
            0.067476,
            0.068167,
            0.069986,
            0.28951,
            0.091488,
            0.073439,
            0.071042,
            0.069996,
            0.066989,
            0.067312,
            0.068684,
            0.066239,
            0.066133,
            0.065071,
            0.068772,
            0.068703,
            0.064788,
            0.098928,
            0.88048,
            0.74727,
            0.25925,
            0.14056,
            0.11057,
            0.099181,
            0.13783,
            0.089304,
            0.085889,
            0.084026,
            0.083249,
            0.080163,
            0.081182,
            0.079721,
            0.078902,
            0.098257,
            0.079036,
            0.11448,
            0.077698,
            0.078287,
            0.080194,
            0.085447,
            0.078146,
            0.0948,
            0.077821,
            0.12063,
            0.13191,
            0.086179,
            0.075161,
            0.093706,
            0.07605,
            0.10786,
            0.075018,
            0.073863,
            0.074123,
            0.09418,
            0.11181,
            0.076907,
            0.073374,
            0.073434,
            0.09188,
            0.10685,
            0.072397,
            0.071387,
            0.091145,
            0.072169,
            0.10632,
            0.069702,
            0.069224,
            0.15276,
            0.18537,
            0.07966,
            0.074315,
            0.090449,
            0.10336,
            0.088958,
            0.28794,
            0.21532,
            0.088893,
            0.081827,
            0.10031,
            0.11596,
            0.090227,
            0.12684,
            0.12741,
            0.077728,
            0.077502,
            0.098539,
            0.11312,
            0.076302,
            0.097352,
            0.11242,
            0.075397,
            0.093736,
            0.1147,
            0.076368,
            0.094654,
            0.10859,
            0.073665,
            0.093489,
            0.11744,
            0.074941,
            0.15857,
            0.071652,
            0.090735,
            0.10861,
            0.071719,
            0.094028,
            0.098753,
            0.06599,
            0.25805,
            0.18134,
            0.11828,
            0.13838,
            0.082966,
            0.10098,
            0.12048,
            0.10114,
            0.11694,
            0.075534,
            0.16687,
            0.07455,
            0.10804,
            0.17122,
            0.10363,
            0.12162,
            0.10073,
            0.19249,
            0.07989,
            0.099463,
            0.11803,
            0.094697,
            0.11509,
            0.075861,
            0.17835,
            0.071938,
            0.19368,
            0.10363,
            0.20728,
            0.082921,
            0.10075,
            0.12367,
            0.10109,
            0.12037,
            0.097605,
            0.11607,
            0.095444,
            0.1129,
            0.093183,
            0.14033,
            0.11478,
            0.12852,
            0.098928,
            0.12161,
            0.13208,
            0.13442,
            0.10148,
            0.1182,
            0.1016,
            0.11741,
            0.093567,
            0.11506,
            0.12564,
            0.13849,
            0.1977,
            0.076623,
            0.18563,
            0.075724,
            0.18382,
            0.096607,
            0.19898,
            0.10166,
            0.12069,
            0.095461,
            0.11439,
            0.17605,
            0.097,
            0.23601,
            0.083047,
            0.19062,
            0.14246,
            0.13976,
            0.10846,
            0.12763,
            0.20267,
            0.077419,
            0.20626,
            0.1263,
            0.17424,
            0.21669,
            0.084472,
            0.19165,
            0.1104,
            0.1486,
            0.13561,
            0.13636,
            0.2427,
            0.10564,
            0.13108,
            0.10581,
            0.12666,
            0.21738,
            0.10195,
            0.12298,
            0.19372,
            0.079818,
            0.1966,
            0.10154,
            0.12192,
            0.19191,
            0.1125,
            0.14629,
            0.19748,
            0.080357,
            0.20053,
            0.10282,
            0.16587,
            0.21469,
            0.10796,
            0.13202,
            0.22699,
            0.10523,
            0.1285,
            0.21487,
            0.11202,
            0.13136,
            0.20609,
            0.10347,
            0.12946,
            0.19704,
            0.10584,
            0.14447,
            0.21551,
            0.10807,
            0.12631,
            0.20135,
            0.11347,
            0.12632,
            0.21383,
            0.10536,
            0.12888,
            0.209,
            0.096145,
            0.12377,
            0.19539,
            0.10273,
            0.13753,
            0.21922,
            0.1433,
            0.15553,
            0.27128,
            0.11032,
            0.14424,
            0.24116,
            0.22148,
            0.10308,
            0.13347,
            0.25488,
            0.12818,
            0.15081,
            0.22491,
            0.22055,
            0.11616,
            0.13195,
            0.20581,
            0.11851,
            0.17573,
            0.2312,
            0.24315,
            0.11059,
            0.15634,
            0.22794,
            0.11251,
            0.14266,
            0.23387,
            0.22961,
            0.11626,
            0.14847,
            0.23924,
            0.21303,
            0.10909,
            0.1462,
            0.24353,
            0.21637,
            0.10749,
            0.1376,
            0.26819,
            0.23799
          ]
        ]
      }
    }
  },
  "experimental_conditions": {
    "001": {
      "0": {
        "analysis": [
          {
            "x4_code": null,
            "free_txt": [
              " Transmission data were analyzed by the least square",
              " method"
            ]
          }
        ],
        "correction": [
          {
            "x4_code": null,
            "free_txt": [
              " For background"
            ]
          }
        ],
        "detector": [
          {
            "x4_code": "(GLASD)",
            "free_txt": [
              " Li-6 glass scintillator, 12.7 cm dia and",
              "        1.27 cm thick"
            ]
          },
          {
            "x4_code": "(BF3)",
            "free_txt": [
              " BF3 proportional counter for monitoring intensity"
            ]
          }
        ],
        "err-analys": [
          {
            "x4_code": "(ERR-S)",
            "free_txt": [
              " Statistical error"
            ]
          },
          {
            "x4_code": "(ERR-1)",
            "free_txt": [
              " Uncertainty due to the correction of impurities",
              "in the Th samples"
            ]
          }
        ],
        "facility": [
          {
            "x4_code": "(LINAC,2JPNKTO)",
            "free_txt": [
              "46 MeV electron linac KURRI"
            ]
          }
        ],
        "inc-source": [
          {
            "x4_code": "(PHOTO)",
            "free_txt": [
              " Water cooled photoneutron target made of",
              " Ta-plates 5. x 5. cm square with an effective",
              " thickness 3.5 cm thick"
            ]
          }
        ],
        "inc-spect": [
          {
            "x4_code": null,
            "free_txt": [
              " 5 cm thick polyethylene slab was used to moderate the",
              " neutrons"
            ]
          }
        ],
        "method": [
          {
            "x4_code": "(TOF)",
            "free_txt": [
              " 22 cm flight path perpendicular to the beam",
              " transmission measurement"
            ]
          }
        ],
        "sample": [
          {
            "x4_code": null,
            "free_txt": [
              " Metallic plates 0.32 cm thick stacked to different",
              " thicknesses. Purity 99.7%, the main impurities: H,C,O",
              "    Parameters of transmission samples",
              "   Th          (cm)                (atom/b)",
              " Sample 1      0.915           0.02648 +- 0.00004",
              " Sample 2      3.048           0.09222 +- 0.00006",
              "               2.128           0.06420 +- 0.00005",
              " Sample 3      3.666           0.11009 +- 0.00006"
            ]
          }
        ]
      }
    },
    "002": {
      "0": {
        "status": [
          {
            "x4_code": "(TABLE)",
            "free_txt": [
              " Data taken from private communication"
            ]
          }
        ]
      }
    }
  }
}