{
  "entry": "D0784",
  "last_updated": "2016-05-03",
  "number_of_revisions": "1",
  "histories": [
    {
      "x4_code": "(20151202C)",
      "free_txt": [
        " VS"
      ]
    }
  ],
  "bib_record": {
    "title": "A study of excited states in 33Cl by elastic proton scattering on 32S",
    "authors": [
      {
        "name": "L.K.Fifield"
      },
      {
        "name": "A.R.Poletti"
      }
    ],
    "institutes": [
      {
        "x4_code": "(3NZLNZA)",
        "free_txt": []
      }
    ],
    "references": {
      "0": [
        {
          "x4_code": "(J,NP/A,220,183,1974)",
          "free_txt": [],
          "publication_year": "1974"
        }
      ]
    },
    "facilities": {
      "0": [
        {
          "x4_code": "(VDGT,3NZLNZA)",
          "free_txt": [],
          "facility_type": "(VDGT)",
          "institute": "(3NZLNZA)"
        }
      ]
    }
  },
  "data_tables": {
    "001": {
      "common": {
        "heads": [
          "EN-NRM",
          "EN-RES-MIN",
          "ERR-1"
        ],
        "units": [
          "MEV",
          "KEV",
          "PER-CENT"
        ],
        "data": [
          [
            1.4
          ],
          [
            2.0
          ],
          [
            1.0
          ]
        ]
      }
    },
    "002": {
      "reaction": {
        "0": {
          "x4_code": "(16-S-32(P,EL)16-S-32,,DA)",
          "0": {
            "code": [
              "16-S-32",
              [
                "P,EL"
              ],
              "16-S-32,,DA"
            ],
            "type": null,
            "target": "16-S-32",
            "process": "P,EL",
            "sf49": "16-S-32,,DA",
            "sf4": "16-S-32",
            "sf5": null,
            "sf6": "DA",
            "sf7": null,
            "sf8": null,
            "sf9": null
          },
          "type": null,
          "free_text": ""
        }
      },
      "common": {
        "heads": [
          "ANG"
        ],
        "units": [
          "ADEG"
        ],
        "data": [
          [
            88.3
          ]
        ]
      },
      "data": {
        "heads": [
          "EN",
          "DATA"
        ],
        "units": [
          "MEV",
          "MB/SR"
        ],
        "data": [
          [
            3.845,
            3.8472,
            3.8505,
            3.8538,
            3.8582,
            3.8626,
            3.8692,
            3.8736,
            3.8802,
            3.8846,
            3.889,
            3.8945,
            3.9,
            3.9044,
            3.9088,
            3.9143,
            3.9198,
            3.9253,
            3.9286,
            3.9341,
            3.9407,
            3.9451,
            3.9517,
            3.9561,
            3.9605,
            3.9649,
            3.9693,
            3.977,
            3.98081,
            3.98264,
            3.98445,
            3.98669,
            3.98853,
            3.99056,
            3.99157,
            3.99256,
            3.99316,
            3.99431,
            3.99535,
            3.9963,
            3.99718,
            3.9986,
            4.00042,
            4.00224,
            4.00445,
            4.00628,
            4.00834,
            4.0111,
            4.0133,
            4.0188,
            4.02379,
            4.02542,
            4.02663,
            4.02785,
            4.02905,
            4.03151,
            4.03311,
            4.03554,
            4.03755,
            4.03967,
            4.04171,
            4.04326,
            4.04509,
            4.04727,
            4.04911,
            4.05181,
            4.05364,
            4.0557,
            4.05771,
            4.06009,
            4.06169,
            4.06372,
            4.06571,
            4.06735,
            4.06938,
            4.07142,
            4.07348,
            4.07593,
            4.07754,
            4.07998,
            4.0837,
            4.087,
            4.0903,
            4.0947,
            4.098,
            4.1002,
            4.1024,
            4.1057,
            4.1068,
            4.1079,
            4.1112,
            4.1123,
            4.1178,
            4.1189,
            4.12167,
            4.12367,
            4.12567,
            4.128,
            4.12967,
            4.13167,
            4.13367,
            4.13467,
            4.13567,
            4.13667,
            4.138,
            4.139,
            4.14,
            4.141,
            4.142,
            4.143,
            4.144,
            4.145,
            4.146,
            4.14733,
            4.1475,
            4.1497,
            4.1508,
            4.1552,
            4.1596,
            4.1629,
            4.1662,
            4.1673,
            4.1706,
            4.1739,
            4.1772,
            4.1794,
            4.1816,
            4.1849,
            4.186,
            4.1893,
            4.1937,
            4.1981,
            4.2014,
            4.2058,
            4.2102,
            4.2146,
            4.2168,
            4.2168,
            4.219,
            4.2256,
            4.23,
            4.2344,
            4.2366,
            4.2377,
            4.241,
            4.2432,
            4.2487,
            4.2509,
            4.2564,
            4.2586,
            4.263,
            4.2663,
            4.2707,
            4.2762,
            4.2784,
            4.2839,
            4.2883,
            4.2916,
            4.296,
            4.2982,
            4.3037,
            4.3059,
            4.3114,
            4.3136,
            4.3202,
            4.3235,
            4.3279,
            4.3323,
            4.3334,
            4.3389,
            4.3444,
            4.3477,
            4.3521,
            4.3554,
            4.3598,
            4.3631,
            4.3686,
            4.373,
            4.3785,
            4.3829,
            4.3884,
            4.3928,
            4.3994,
            4.4038,
            4.4082,
            4.4126,
            4.4181,
            4.4236,
            4.428,
            4.4324,
            4.4357,
            4.439,
            4.4401,
            4.4423,
            4.4467,
            4.4522,
            4.4555,
            4.4599,
            4.4654,
            4.4676,
            4.4709,
            4.4753,
            4.4797,
            4.4819,
            4.483,
            4.4852,
            4.4863,
            4.4896,
            4.4907,
            4.4918,
            4.4951,
            4.4984,
            4.4995,
            4.5017,
            4.5061,
            4.5105,
            4.5149,
            4.5182,
            4.5226,
            4.5259,
            4.5314,
            4.5336,
            4.538,
            4.5413,
            4.5424,
            4.5457,
            4.549,
            4.5501,
            4.5512,
            4.5545,
            4.5567,
            4.5578,
            4.5589,
            4.5611,
            4.5622,
            4.5655,
            4.5666,
            4.5699,
            4.571,
            4.5743,
            4.5765,
            4.5787,
            4.5809,
            4.582,
            4.5853,
            4.5897,
            4.5941,
            4.5974,
            4.6018,
            4.6084,
            4.6128,
            4.6183,
            4.6249,
            4.6282,
            4.6337,
            4.6381,
            4.6436,
            4.648,
            4.6524,
            4.6579,
            4.6634,
            4.6678,
            4.6733,
            4.6766,
            4.6832,
            4.6876,
            4.692,
            4.6964,
            4.703,
            4.7041,
            4.7063,
            4.7085,
            4.7107,
            4.7118,
            4.7151,
            4.7184,
            4.7195,
            4.7228,
            4.7261,
            4.7272,
            4.7283,
            4.7316,
            4.7327,
            4.7349,
            4.7371,
            4.7393,
            4.7415,
            4.7437,
            4.7448,
            4.7481,
            4.7514,
            4.7536,
            4.7569,
            4.7602,
            4.7635,
            4.769,
            4.7723,
            4.7789,
            4.7833,
            4.7888,
            4.7921,
            4.7987,
            4.8031,
            4.8075,
            4.8119,
            4.8185,
            4.8229,
            4.8273,
            4.8317,
            4.835,
            4.8383,
            4.8394,
            4.8416,
            4.8427,
            4.846,
            4.8493,
            4.8504,
            4.8515,
            4.8537,
            4.857,
            4.8581,
            4.8592,
            4.8614,
            4.8647,
            4.8658,
            4.8691,
            4.8713,
            4.8735,
            4.8746,
            4.8757,
            4.8812,
            4.8823,
            4.8856,
            4.89,
            4.8944,
            4.8977,
            4.9032,
            4.9065,
            4.9087,
            4.9109,
            4.9175,
            4.9219,
            4.9285,
            4.9307,
            4.9373,
            4.9406,
            4.9417,
            4.945,
            4.9483,
            4.9494,
            4.9505,
            4.9538,
            4.956,
            4.9571,
            4.9582,
            4.9604,
            4.9615,
            4.9637,
            4.9648,
            4.9681,
            4.9692,
            4.9725,
            4.9736,
            4.9758,
            4.978,
            4.9802,
            4.9824,
            4.9857,
            4.989,
            4.9923,
            4.9945,
            4.9978,
            5.0011,
            5.0077,
            5.0099,
            5.0143,
            5.0209,
            5.0253,
            5.0297
          ],
          [
            116.111,
            116.131,
            114.365,
            114.384,
            116.2,
            114.444,
            114.483,
            114.513,
            112.767,
            112.797,
            112.826,
            114.652,
            112.896,
            114.711,
            114.741,
            114.78,
            114.81,
            114.849,
            114.869,
            113.123,
            113.163,
            107.835,
            109.661,
            109.69,
            107.934,
            111.535,
            113.351,
            111.614,
            110.201,
            110.163,
            104.412,
            103.958,
            104.329,
            101.431,
            100.593,
            95.267,
            91.173,
            77.68,
            81.741,
            107.028,
            119.255,
            119.225,
            114.29,
            111.804,
            105.229,
            104.375,
            108.006,
            106.475,
            106.495,
            104.739,
            103.248,
            103.179,
            101.461,
            101.41,
            98.859,
            99.589,
            97.021,
            94.418,
            91.833,
            99.245,
            99.992,
            91.593,
            70.679,
            43.916,
            64.675,
            129.572,
            149.498,
            151.078,
            147.66,
            141.725,
            138.324,
            136.572,
            132.32,
            132.252,
            131.333,
            131.247,
            133.66,
            133.557,
            130.989,
            130.053,
            124.807,
            128.398,
            128.418,
            128.447,
            117.753,
            114.201,
            110.64,
            101.731,
            96.384,
            67.823,
            94.628,
            105.352,
            107.167,
            108.963,
            107.91,
            110.55,
            111.87,
            114.51,
            114.51,
            115.82,
            129.01,
            136.92,
            148.79,
            171.21,
            194.95,
            213.41,
            201.54,
            168.57,
            134.29,
            121.1,
            111.87,
            106.59,
            105.27,
            101.32,
            110.937,
            102.018,
            100.242,
            98.486,
            96.73,
            93.179,
            94.984,
            105.708,
            111.085,
            114.676,
            114.696,
            112.93,
            114.726,
            116.531,
            118.327,
            116.561,
            118.376,
            121.977,
            121.997,
            123.812,
            125.628,
            125.658,
            131.024,
            129.239,
            132.83,
            132.869,
            136.471,
            136.5,
            138.296,
            140.091,
            138.325,
            140.131,
            140.161,
            136.609,
            133.067,
            129.516,
            127.76,
            125.994,
            122.452,
            117.125,
            117.145,
            113.603,
            108.275,
            104.724,
            102.968,
            102.988,
            101.232,
            99.466,
            97.71,
            95.944,
            94.198,
            92.432,
            92.462,
            92.491,
            90.715,
            88.959,
            87.213,
            89.019,
            89.048,
            83.711,
            83.741,
            83.761,
            85.586,
            83.83,
            82.074,
            82.104,
            82.143,
            82.173,
            82.212,
            82.242,
            80.486,
            80.516,
            80.545,
            80.585,
            78.829,
            78.859,
            80.664,
            82.47,
            80.694,
            77.132,
            77.162,
            77.202,
            73.65,
            77.251,
            73.709,
            71.943,
            70.178,
            70.207,
            70.237,
            66.675,
            63.114,
            55.981,
            47.063,
            36.368,
            56.021,
            86.387,
            116.764,
            114.998,
            111.436,
            107.875,
            107.905,
            104.363,
            102.607,
            100.841,
            100.871,
            100.89,
            97.359,
            97.368,
            97.398,
            93.847,
            92.071,
            88.519,
            86.753,
            84.977,
            81.416,
            79.65,
            74.303,
            68.956,
            60.037,
            49.333,
            17.201,
            35.077,
            83.301,
            111.891,
            115.473,
            110.135,
            106.574,
            99.451,
            94.104,
            90.542,
            88.776,
            85.235,
            83.479,
            79.927,
            78.171,
            76.425,
            74.669,
            72.923,
            72.962,
            71.197,
            67.665,
            67.694,
            67.724,
            62.397,
            62.426,
            62.466,
            58.924,
            55.383,
            53.636,
            51.871,
            48.339,
            44.797,
            39.47,
            32.357,
            27.039,
            23.478,
            19.916,
            18.15,
            14.589,
            12.813,
            11.047,
            11.067,
            21.791,
            28.953,
            41.473,
            55.768,
            66.492,
            82.583,
            91.522,
            102.246,
            109.408,
            116.561,
            118.366,
            120.162,
            123.743,
            121.977,
            123.783,
            122.017,
            122.037,
            120.271,
            118.505,
            116.759,
            116.779,
            113.247,
            111.491,
            109.745,
            111.55,
            108.018,
            99.12,
            95.578,
            92.036,
            88.504,
            84.963,
            79.635,
            77.879,
            77.899,
            76.133,
            74.357,
            72.582,
            70.806,
            67.254,
            65.488,
            60.141,
            58.365,
            53.018,
            47.681,
            40.548,
            35.201,
            38.782,
            45.945,
            58.454,
            72.76,
            87.065,
            88.86,
            92.442,
            94.237,
            96.053,
            94.277,
            92.511,
            92.541,
            87.213,
            87.233,
            87.273,
            80.15,
            83.731,
            81.965,
            76.648,
            76.677,
            76.717,
            73.165,
            69.633,
            69.653,
            67.877,
            66.112,
            64.346,
            60.784,
            59.008,
            57.242,
            51.895,
            46.548,
            44.772,
            41.211,
            32.292,
            26.945,
            23.384,
            14.475,
            18.056,
            23.433,
            43.086,
            55.595,
            75.258,
            91.339,
            94.93,
            100.307,
            102.112,
            102.132,
            98.58,
            96.814,
            95.049,
            93.302,
            95.108,
            89.781,
            89.82,
            89.85,
            88.094
          ]
        ]
      }
    },
    "003": {
      "reaction": {
        "0": {
          "x4_code": "(16-S-32(P,EL)16-S-32,,DA)",
          "0": {
            "code": [
              "16-S-32",
              [
                "P,EL"
              ],
              "16-S-32,,DA"
            ],
            "type": null,
            "target": "16-S-32",
            "process": "P,EL",
            "sf49": "16-S-32,,DA",
            "sf4": "16-S-32",
            "sf5": null,
            "sf6": "DA",
            "sf7": null,
            "sf8": null,
            "sf9": null
          },
          "type": null,
          "free_text": ""
        }
      },
      "common": {
        "heads": [
          "ANG"
        ],
        "units": [
          "ADEG"
        ],
        "data": [
          [
            121.7
          ]
        ]
      },
      "data": {
        "heads": [
          "EN",
          "DATA"
        ],
        "units": [
          "MEV",
          "MB/SR"
        ],
        "data": [
          [
            3.842,
            3.847,
            3.85,
            3.853,
            3.858,
            3.864,
            3.868,
            3.873,
            3.879,
            3.884,
            3.888,
            3.894,
            3.899,
            3.904,
            3.908,
            3.914,
            3.919,
            3.923,
            3.928,
            3.933,
            3.939,
            3.943,
            3.948,
            3.954,
            3.959,
            3.963,
            3.969,
            3.974,
            3.979,
            3.98225,
            3.98429,
            3.98633,
            3.98837,
            3.9902,
            3.99122,
            3.99204,
            3.99408,
            3.9951,
            3.99612,
            3.99714,
            3.99796,
            3.99918,
            4.0002,
            4.00224,
            4.00408,
            4.00612,
            4.00796,
            4.008,
            4.012,
            4.02143,
            4.02388,
            4.02551,
            4.02755,
            4.02796,
            4.03163,
            4.03367,
            4.03571,
            4.03775,
            4.03939,
            4.04143,
            4.04387,
            4.04551,
            4.04714,
            4.04836,
            4.04959,
            4.05163,
            4.05326,
            4.05571,
            4.05775,
            4.05979,
            4.06183,
            4.06387,
            4.06591,
            4.06836,
            4.06999,
            4.07203,
            4.07366,
            4.0757,
            4.07775,
            4.08,
            4.084,
            4.089,
            4.093,
            4.095,
            4.096,
            4.1,
            4.101,
            4.104,
            4.106,
            4.107,
            4.109,
            4.112,
            4.113,
            4.116,
            4.12167,
            4.12367,
            4.126,
            4.128,
            4.13,
            4.132,
            4.134,
            4.135,
            4.136,
            4.137,
            4.138,
            4.139,
            4.14033,
            4.14133,
            4.14233,
            4.143,
            4.14433,
            4.14533,
            4.14633,
            4.14733,
            4.14833,
            4.14933,
            4.15,
            4.155,
            4.158,
            4.161,
            4.165,
            4.168,
            4.173,
            4.178,
            4.182,
            4.187,
            4.191,
            4.195,
            4.199,
            4.202,
            4.205,
            4.21,
            4.214,
            4.218,
            4.222,
            4.227,
            4.23,
            4.234,
            4.237,
            4.242,
            4.247,
            4.25,
            4.254,
            4.257,
            4.26,
            4.267,
            4.27,
            4.274,
            4.279,
            4.282,
            4.286,
            4.289,
            4.294,
            4.299,
            4.302,
            4.306,
            4.309,
            4.314,
            4.317,
            4.322,
            4.326,
            4.328,
            4.331,
            4.335,
            4.342,
            4.345,
            4.346,
            4.351,
            4.354,
            4.357,
            4.361,
            4.366,
            4.372,
            4.377,
            4.381,
            4.388,
            4.392,
            4.397,
            4.401,
            4.407,
            4.412,
            4.417,
            4.423,
            4.427,
            4.43,
            4.435,
            4.438,
            4.443,
            4.446,
            4.45,
            4.455,
            4.458,
            4.463,
            4.467,
            4.472,
            4.473,
            4.478,
            4.482,
            4.487,
            4.487,
            4.491,
            4.492,
            4.495,
            4.496,
            4.501,
            4.502,
            4.507,
            4.512,
            4.515,
            4.518,
            4.522,
            4.527,
            4.53,
            4.533,
            4.538,
            4.53935,
            4.54194,
            4.54387,
            4.54581,
            4.54774,
            4.54968,
            4.55161,
            4.55355,
            4.55548,
            4.55742,
            4.55871,
            4.56,
            4.56065,
            4.56129,
            4.56258,
            4.56387,
            4.56452,
            4.56581,
            4.5671,
            4.56774,
            4.56903,
            4.56968,
            4.57097,
            4.57226,
            4.57355,
            4.57613,
            4.57806,
            4.58,
            4.58194,
            4.58387,
            4.58581,
            4.58774,
            4.58968,
            4.59,
            4.594,
            4.599,
            4.602,
            4.607,
            4.613,
            4.616,
            4.622,
            4.628,
            4.633,
            4.637,
            4.642,
            4.646,
            4.651,
            4.656,
            4.662,
            4.666,
            4.671,
            4.675,
            4.682,
            4.686,
            4.691,
            4.695,
            4.702,
            4.705,
            4.706,
            4.711,
            4.714,
            4.715,
            4.717,
            4.72,
            4.721,
            4.725,
            4.728,
            4.731,
            4.734,
            4.735,
            4.737,
            4.738,
            4.74,
            4.743,
            4.744,
            4.746,
            4.747,
            4.751,
            4.752,
            4.754,
            4.758,
            4.763,
            4.767,
            4.774,
            4.777,
            4.781,
            4.787,
            4.792,
            4.796,
            4.801,
            4.807,
            4.81,
            4.816,
            4.821,
            4.827,
            4.832,
            4.836,
            4.841,
            4.846,
            4.85,
            4.853,
            4.856,
            4.862,
            4.865,
            4.87,
            4.872,
            4.875,
            4.876,
            4.879,
            4.881,
            4.884,
            4.89,
            4.893,
            4.901,
            4.907,
            4.91,
            4.917,
            4.922,
            4.927,
            4.933,
            4.936,
            4.94,
            4.945,
            4.95,
            4.953,
            4.959,
            4.962,
            4.965,
            4.967,
            4.968,
            4.971,
            4.973,
            4.976,
            4.978,
            4.979,
            4.98,
            4.982,
            4.985,
            4.986,
            4.989,
            4.994,
            4.997,
            5.0,
            5.003,
            5.009,
            5.016,
            5.019,
            5.025,
            5.029
          ],
          [
            70.37,
            70.37,
            70.37,
            70.37,
            70.37,
            70.37,
            68.519,
            68.519,
            66.667,
            70.37,
            70.37,
            70.37,
            70.37,
            66.667,
            66.667,
            68.519,
            68.519,
            70.37,
            66.667,
            66.667,
            70.37,
            66.667,
            68.519,
            68.519,
            66.667,
            66.667,
            66.667,
            66.667,
            66.667,
            66.809,
            70.213,
            65.957,
            65.957,
            67.66,
            69.787,
            70.213,
            84.255,
            100.0,
            94.468,
            83.404,
            77.447,
            70.638,
            70.638,
            70.213,
            71.915,
            72.766,
            74.894,
            74.074,
            74.074,
            73.878,
            73.061,
            73.061,
            73.878,
            70.612,
            72.245,
            72.245,
            68.98,
            70.612,
            73.878,
            80.408,
            88.571,
            119.592,
            171.02,
            175.102,
            144.898,
            117.143,
            91.02,
            82.857,
            80.408,
            76.327,
            75.51,
            73.878,
            76.327,
            76.327,
            76.327,
            76.327,
            75.51,
            71.429,
            71.429,
            68.519,
            77.778,
            75.926,
            81.481,
            85.185,
            77.778,
            55.556,
            46.296,
            40.741,
            37.037,
            64.815,
            83.333,
            70.37,
            64.815,
            62.963,
            64.0,
            68.0,
            68.0,
            72.0,
            74.67,
            76.0,
            84.0,
            89.33,
            97.33,
            106.67,
            110.67,
            85.33,
            62.67,
            36.0,
            26.67,
            26.67,
            28.0,
            34.67,
            36.0,
            40.0,
            40.0,
            41.33,
            40.741,
            46.296,
            48.148,
            42.593,
            46.296,
            48.148,
            50.0,
            50.0,
            50.0,
            50.0,
            50.0,
            48.148,
            48.148,
            51.852,
            50.0,
            48.148,
            42.593,
            42.593,
            38.889,
            40.741,
            37.037,
            35.185,
            29.63,
            27.778,
            27.778,
            25.926,
            27.778,
            25.926,
            24.074,
            25.926,
            29.63,
            29.63,
            29.63,
            29.63,
            33.333,
            37.037,
            38.889,
            38.889,
            38.889,
            38.889,
            42.593,
            40.741,
            42.593,
            42.593,
            48.148,
            48.148,
            48.148,
            48.148,
            44.444,
            42.593,
            46.296,
            46.296,
            46.296,
            50.0,
            48.148,
            48.148,
            48.148,
            48.148,
            48.148,
            48.148,
            46.296,
            48.148,
            48.148,
            48.148,
            48.148,
            48.148,
            48.148,
            48.148,
            50.0,
            51.852,
            46.296,
            53.704,
            51.852,
            51.852,
            53.704,
            53.704,
            53.704,
            53.704,
            53.704,
            51.852,
            55.556,
            55.556,
            61.111,
            79.63,
            87.037,
            62.963,
            48.148,
            37.037,
            38.889,
            40.741,
            44.444,
            44.444,
            46.296,
            46.296,
            48.148,
            48.148,
            50.0,
            48.148,
            48.148,
            49.33,
            48.0,
            50.67,
            49.33,
            50.67,
            52.0,
            53.33,
            57.33,
            62.67,
            72.0,
            81.33,
            94.67,
            102.67,
            113.33,
            105.33,
            93.33,
            80.0,
            66.67,
            61.33,
            57.33,
            53.33,
            52.0,
            50.67,
            49.33,
            49.33,
            48.0,
            48.0,
            48.0,
            45.33,
            46.67,
            46.67,
            45.33,
            46.67,
            42.593,
            42.593,
            42.593,
            44.444,
            44.444,
            42.593,
            42.593,
            42.593,
            40.741,
            40.741,
            40.741,
            38.889,
            38.889,
            42.593,
            35.185,
            35.185,
            33.333,
            35.185,
            33.333,
            33.333,
            35.185,
            35.185,
            38.889,
            42.593,
            46.296,
            51.852,
            59.259,
            66.667,
            75.926,
            81.481,
            94.444,
            100.0,
            105.556,
            107.407,
            105.556,
            98.148,
            92.593,
            85.185,
            81.481,
            70.37,
            66.667,
            61.111,
            57.407,
            53.704,
            48.148,
            44.444,
            42.593,
            37.037,
            35.185,
            31.481,
            29.63,
            27.778,
            27.778,
            24.074,
            22.222,
            16.667,
            16.667,
            16.667,
            16.667,
            20.37,
            24.074,
            24.074,
            25.926,
            24.074,
            24.074,
            24.074,
            22.222,
            22.222,
            24.074,
            29.63,
            33.333,
            37.037,
            31.481,
            20.37,
            18.519,
            22.222,
            25.926,
            27.778,
            27.778,
            29.63,
            27.778,
            25.926,
            31.481,
            29.63,
            27.778,
            27.778,
            27.778,
            29.63,
            27.778,
            27.778,
            27.778,
            29.63,
            31.481,
            31.481,
            35.185,
            38.889,
            44.444,
            48.148,
            51.852,
            53.704,
            51.852,
            50.0,
            48.148,
            46.296,
            42.593,
            40.741,
            37.037,
            33.333,
            31.481,
            29.63,
            29.63,
            27.778,
            27.778,
            27.778,
            25.926,
            25.926
          ]
        ]
      }
    },
    "004": {
      "reaction": {
        "0": {
          "x4_code": "(16-S-32(P,EL)16-S-32,,DA)",
          "0": {
            "code": [
              "16-S-32",
              [
                "P,EL"
              ],
              "16-S-32,,DA"
            ],
            "type": null,
            "target": "16-S-32",
            "process": "P,EL",
            "sf49": "16-S-32,,DA",
            "sf4": "16-S-32",
            "sf5": null,
            "sf6": "DA",
            "sf7": null,
            "sf8": null,
            "sf9": null
          },
          "type": null,
          "free_text": ""
        }
      },
      "common": {
        "heads": [
          "ANG"
        ],
        "units": [
          "ADEG"
        ],
        "data": [
          [
            141.7
          ]
        ]
      },
      "data": {
        "heads": [
          "EN",
          "DATA"
        ],
        "units": [
          "MEV",
          "MB/SR"
        ],
        "data": [
          [
            3.841,
            3.846,
            3.85,
            3.854,
            3.858,
            3.863,
            3.867,
            3.874,
            3.878,
            3.883,
            3.887,
            3.894,
            3.898,
            3.9,
            3.903,
            3.906,
            3.909,
            3.914,
            3.918,
            3.924,
            3.929,
            3.934,
            3.938,
            3.944,
            3.949,
            3.954,
            3.96,
            3.964,
            3.969,
            3.974,
            3.98,
            3.983,
            3.987,
            3.989,
            3.992,
            3.993,
            3.995,
            3.997,
            4.0,
            4.004,
            4.007,
            4.015,
            4.02,
            4.024,
            4.027,
            4.032,
            4.035,
            4.037,
            4.04,
            4.041,
            4.044,
            4.047,
            4.05,
            4.052,
            4.054,
            4.057,
            4.06,
            4.063,
            4.068,
            4.071,
            4.075,
            4.08,
            4.084,
            4.085,
            4.086,
            4.088,
            4.091,
            4.092,
            4.095,
            4.097,
            4.098,
            4.101,
            4.104,
            4.107,
            4.11,
            4.112,
            4.115,
            4.12,
            4.123,
            4.126,
            4.129,
            4.134,
            4.137,
            4.14,
            4.143,
            4.146,
            4.147,
            4.151,
            4.151,
            4.155,
            4.157,
            4.16,
            4.163,
            4.164,
            4.168,
            4.172,
            4.175,
            4.18,
            4.184,
            4.189,
            4.192,
            4.195,
            4.2,
            4.205,
            4.208,
            4.212,
            4.215,
            4.22,
            4.223,
            4.226,
            4.231,
            4.235,
            4.24,
            4.245,
            4.248,
            4.252,
            4.257,
            4.26,
            4.264,
            4.267,
            4.272,
            4.277,
            4.28,
            4.284,
            4.287,
            4.292,
            4.295,
            4.301,
            4.304,
            4.309,
            4.314,
            4.318,
            4.323,
            4.327,
            4.334,
            4.338,
            4.343,
            4.346,
            4.349,
            4.354,
            4.358,
            4.363,
            4.367,
            4.37,
            4.377,
            4.381,
            4.386,
            4.392,
            4.397,
            4.403,
            4.407,
            4.412,
            4.417,
            4.423,
            4.427,
            4.432,
            4.437,
            4.44,
            4.443,
            4.447,
            4.45,
            4.46,
            4.464,
            4.467,
            4.472,
            4.477,
            4.48,
            4.483,
            4.484,
            4.487,
            4.489,
            4.492,
            4.493,
            4.495,
            4.497,
            4.498,
            4.5,
            4.501,
            4.504,
            4.509,
            4.514,
            4.517,
            4.523,
            4.532,
            4.54,
            4.552,
            4.556,
            4.558,
            4.561,
            4.562,
            4.566,
            4.566,
            4.567,
            4.569,
            4.571,
            4.574,
            4.577,
            4.58,
            4.584,
            4.589,
            4.592,
            4.598,
            4.6,
            4.607,
            4.612,
            4.617,
            4.621,
            4.627,
            4.631,
            4.637,
            4.641,
            4.647,
            4.652,
            4.657,
            4.661,
            4.667,
            4.67,
            4.677,
            4.681,
            4.686,
            4.69,
            4.695,
            4.701,
            4.706,
            4.707,
            4.709,
            4.712,
            4.713,
            4.716,
            4.718,
            4.721,
            4.722,
            4.724,
            4.727,
            4.729,
            4.73,
            4.732,
            4.733,
            4.735,
            4.737,
            4.738,
            4.74,
            4.743,
            4.744,
            4.748,
            4.749,
            4.754,
            4.76,
            4.766,
            4.769,
            4.775,
            4.78,
            4.786,
            4.791,
            4.797,
            4.8,
            4.806,
            4.811,
            4.815,
            4.82,
            4.826,
            4.831,
            4.834,
            4.838,
            4.843,
            4.844,
            4.847,
            4.851,
            4.855,
            4.857,
            4.858,
            4.86,
            4.863,
            4.865,
            4.869,
            4.871,
            4.875,
            4.88,
            4.884,
            4.889,
            4.894,
            4.898,
            4.903,
            4.906,
            4.911,
            4.917,
            4.921,
            4.928,
            4.931,
            4.937,
            4.941,
            4.946,
            4.949,
            4.952,
            4.954,
            4.958,
            4.96,
            4.963,
            4.964,
            4.966,
            4.969,
            4.972,
            4.975,
            4.977,
            4.978,
            4.98,
            4.981,
            4.985,
            4.986,
            4.989,
            4.992,
            4.995,
            4.998,
            5.003,
            5.006,
            5.011,
            5.015,
            5.02,
            5.025,
            5.029
          ],
          [
            81.497,
            81.522,
            81.546,
            81.563,
            81.587,
            79.76,
            79.784,
            79.817,
            79.841,
            79.865,
            81.742,
            79.922,
            81.799,
            83.659,
            85.527,
            83.691,
            81.856,
            80.028,
            80.053,
            76.382,
            80.11,
            78.282,
            78.307,
            76.487,
            76.512,
            76.536,
            76.569,
            76.593,
            74.766,
            76.642,
            74.823,
            76.691,
            78.567,
            84.131,
            97.11,
            124.895,
            73.052,
            65.653,
            71.225,
            73.101,
            74.969,
            75.01,
            73.183,
            73.207,
            73.223,
            75.099,
            71.412,
            62.161,
            76.992,
            93.667,
            125.164,
            173.328,
            114.086,
            67.798,
            45.584,
            38.193,
            40.061,
            41.929,
            40.102,
            40.118,
            38.291,
            36.463,
            84.635,
            30.932,
            56.866,
            29.097,
            32.817,
            53.195,
            77.285,
            93.96,
            79.153,
            77.318,
            77.334,
            119.942,
            129.218,
            101.44,
            84.798,
            79.267,
            75.58,
            73.744,
            73.76,
            70.081,
            81.208,
            112.706,
            140.5,
            99.776,
            77.562,
            73.874,
            70.171,
            64.64,
            62.796,
            60.96,
            57.273,
            49.874,
            44.335,
            44.359,
            42.523,
            38.844,
            40.72,
            37.041,
            35.206,
            31.518,
            27.839,
            31.567,
            27.88,
            26.052,
            24.217,
            18.686,
            20.554,
            22.422,
            22.446,
            22.471,
            22.495,
            26.223,
            29.943,
            35.523,
            42.955,
            48.527,
            48.551,
            55.975,
            61.555,
            67.135,
            72.706,
            72.731,
            74.599,
            76.475,
            78.343,
            82.079,
            82.096,
            83.972,
            83.996,
            84.021,
            84.045,
            85.922,
            85.954,
            89.682,
            86.003,
            84.167,
            84.184,
            84.208,
            89.788,
            87.961,
            86.133,
            86.149,
            86.182,
            86.206,
            84.379,
            84.412,
            86.288,
            84.469,
            80.789,
            82.666,
            84.542,
            82.723,
            86.451,
            84.623,
            92.055,
            84.664,
            84.68,
            84.705,
            84.721,
            84.77,
            84.794,
            81.107,
            86.687,
            97.822,
            99.69,
            108.966,
            123.788,
            144.175,
            179.368,
            192.347,
            166.429,
            138.66,
            114.594,
            107.195,
            96.092,
            94.249,
            90.561,
            88.734,
            86.906,
            88.775,
            88.807,
            90.708,
            100.008,
            109.332,
            122.319,
            129.735,
            146.417,
            172.351,
            161.257,
            101.998,
            53.858,
            37.2,
            39.06,
            44.632,
            52.055,
            55.775,
            59.503,
            59.528,
            63.248,
            66.984,
            66.992,
            70.736,
            70.761,
            70.785,
            70.81,
            68.99,
            69.007,
            69.039,
            67.212,
            70.948,
            74.676,
            70.997,
            71.021,
            74.758,
            74.774,
            76.658,
            80.386,
            82.263,
            85.991,
            89.719,
            99.011,
            108.294,
            112.006,
            119.421,
            128.697,
            139.816,
            141.684,
            145.396,
            165.782,
            165.79,
            162.095,
            154.704,
            141.749,
            128.795,
            117.692,
            97.33,
            86.227,
            75.124,
            65.873,
            58.474,
            52.934,
            47.387,
            41.848,
            36.3,
            32.621,
            28.95,
            27.131,
            27.147,
            29.032,
            29.056,
            30.94,
            34.668,
            38.405,
            45.828,
            47.713,
            45.885,
            45.91,
            49.638,
            53.374,
            51.547,
            53.415,
            53.439,
            55.315,
            55.324,
            55.34,
            55.356,
            53.529,
            47.981,
            44.286,
            38.738,
            29.496,
            25.8,
            33.232,
            38.795,
            36.968,
            36.992,
            40.72,
            42.597,
            46.325,
            46.349,
            44.522,
            46.39,
            48.266,
            46.447,
            50.175,
            48.356,
            52.076,
            53.96,
            55.836,
            57.713,
            59.581,
            61.449,
            67.012,
            74.444,
            74.452,
            81.876,
            89.291,
            94.855,
            107.834,
            105.999,
            74.534,
            57.875,
            41.217,
            30.114,
            24.567,
            17.176,
            13.48,
            13.496,
            13.513,
            15.381,
            19.101,
            20.977,
            20.993,
            21.018,
            21.042,
            21.067,
            22.943,
            24.819
          ]
        ]
      }
    },
    "005": {
      "reaction": {
        "0": {
          "x4_code": "(16-S-32(P,EL)16-S-32,,DA)",
          "0": {
            "code": [
              "16-S-32",
              [
                "P,EL"
              ],
              "16-S-32,,DA"
            ],
            "type": null,
            "target": "16-S-32",
            "process": "P,EL",
            "sf49": "16-S-32,,DA",
            "sf4": "16-S-32",
            "sf5": null,
            "sf6": "DA",
            "sf7": null,
            "sf8": null,
            "sf9": null
          },
          "type": null,
          "free_text": ""
        }
      },
      "common": {
        "heads": [
          "ANG"
        ],
        "units": [
          "ADEG"
        ],
        "data": [
          [
            161.7
          ]
        ]
      },
      "data": {
        "heads": [
          "EN",
          "DATA"
        ],
        "units": [
          "MEV",
          "MB/SR"
        ],
        "data": [
          [
            3.844,
            3.847,
            3.851,
            3.856,
            3.859,
            3.865,
            3.87,
            3.874,
            3.879,
            3.885,
            3.89,
            3.896,
            3.901,
            3.902,
            3.905,
            3.91,
            3.916,
            3.921,
            3.925,
            3.93,
            3.935,
            3.939,
            3.947,
            3.95,
            3.956,
            3.961,
            3.965,
            3.972,
            3.975,
            3.98049,
            3.98233,
            3.98418,
            3.98622,
            3.98786,
            3.98974,
            3.99098,
            3.99162,
            3.99268,
            3.99383,
            3.99505,
            3.99585,
            3.99696,
            3.99797,
            3.99982,
            4.00188,
            4.00395,
            4.00579,
            4.00784,
            4.009,
            4.013,
            4.016,
            4.02186,
            4.02348,
            4.02469,
            4.02631,
            4.02834,
            4.02996,
            4.03197,
            4.03398,
            4.03597,
            4.03835,
            4.04006,
            4.04176,
            4.04397,
            4.04626,
            4.04791,
            4.04981,
            4.05203,
            4.05396,
            4.05718,
            4.0592,
            4.06204,
            4.06407,
            4.06608,
            4.06811,
            4.069,
            4.074,
            4.075,
            4.077,
            4.08,
            4.082,
            4.083,
            4.088,
            4.092,
            4.094,
            4.095,
            4.097,
            4.1,
            4.101,
            4.104,
            4.106,
            4.107,
            4.11,
            4.112,
            4.115,
            4.115,
            4.118,
            4.12,
            4.12129,
            4.12258,
            4.12452,
            4.12645,
            4.12807,
            4.13,
            4.13193,
            4.13419,
            4.13484,
            4.13613,
            4.13709,
            4.13806,
            4.13871,
            4.13967,
            4.14096,
            4.14193,
            4.1429,
            4.14386,
            4.14515,
            4.1458,
            4.14709,
            4.14806,
            4.14902,
            4.15,
            4.152,
            4.154,
            4.155,
            4.158,
            4.16,
            4.162,
            4.163,
            4.166,
            4.168,
            4.169,
            4.171,
            4.176,
            4.179,
            4.18,
            4.185,
            4.19,
            4.193,
            4.197,
            4.2,
            4.204,
            4.208,
            4.211,
            4.213,
            4.214,
            4.219,
            4.221,
            4.222,
            4.225,
            4.23,
            4.234,
            4.238,
            4.239,
            4.239,
            4.242,
            4.244,
            4.245,
            4.247,
            4.25,
            4.251,
            4.253,
            4.254,
            4.257,
            4.259,
            4.262,
            4.262,
            4.265,
            4.268,
            4.269,
            4.271,
            4.274,
            4.277,
            4.278,
            4.279,
            4.282,
            4.285,
            4.286,
            4.288,
            4.292,
            4.297,
            4.3,
            4.306,
            4.309,
            4.312,
            4.319,
            4.322,
            4.325,
            4.331,
            4.337,
            4.342,
            4.346,
            4.349,
            4.354,
            4.356,
            4.357,
            4.36,
            4.362,
            4.366,
            4.371,
            4.377,
            4.382,
            4.387,
            4.393,
            4.396,
            4.402,
            4.407,
            4.413,
            4.416,
            4.421,
            4.427,
            4.431,
            4.434,
            4.436,
            4.437,
            4.439,
            4.442,
            4.447,
            4.45,
            4.454,
            4.458,
            4.462,
            4.467,
            4.468,
            4.47,
            4.473,
            4.474,
            4.476,
            4.477,
            4.479,
            4.482,
            4.483,
            4.486,
            4.487,
            4.491,
            4.492,
            4.494,
            4.496,
            4.497,
            4.499,
            4.502,
            4.504,
            4.507,
            4.51,
            4.515,
            4.516,
            4.522,
            4.525,
            4.528,
            4.533,
            4.536,
            4.53905,
            4.54103,
            4.54301,
            4.54498,
            4.54696,
            4.54961,
            4.5516,
            4.55359,
            4.5556,
            4.55764,
            4.55898,
            4.55968,
            4.56098,
            4.56153,
            4.56288,
            4.56378,
            4.565,
            4.56562,
            4.56694,
            4.56826,
            4.5696,
            4.57159,
            4.57424,
            4.57557,
            4.57755,
            4.58019,
            4.58151,
            4.58413,
            4.5861,
            4.58808,
            4.59006,
            4.591,
            4.594,
            4.597,
            4.6,
            4.601,
            4.606,
            4.612,
            4.617,
            4.621,
            4.627,
            4.632,
            4.635,
            4.641,
            4.646,
            4.651,
            4.655,
            4.661,
            4.666,
            4.671,
            4.675,
            4.681,
            4.686,
            4.69,
            4.697,
            4.701,
            4.703,
            4.704,
            4.707,
            4.709,
            4.712,
            4.713,
            4.715,
            4.718,
            4.721,
            4.724,
            4.725,
            4.727,
            4.729,
            4.73,
            4.732,
            4.734,
            4.737,
            4.74,
            4.742,
            4.745,
            4.745,
            4.748,
            4.75,
            4.751,
            4.753,
            4.756,
            4.761,
            4.765,
            4.77,
            4.774,
            4.779,
            4.785,
            4.79,
            4.794,
            4.8,
            4.805,
            4.81,
            4.814,
            4.82,
            4.824,
            4.828,
            4.831,
            4.836,
            4.837,
            4.842,
            4.845,
            4.848,
            4.853,
            4.856,
            4.858,
            4.861,
            4.862,
            4.864,
            4.866,
            4.869,
            4.87,
            4.871,
            4.875,
            4.876,
            4.879,
            4.882,
            4.885,
            4.889,
            4.893,
            4.896,
            4.901,
            4.904,
            4.91,
            4.916,
            4.921,
            4.924,
            4.93,
            4.936,
            4.938,
            4.941,
            4.944,
            4.947,
            4.95,
            4.953,
            4.955,
            4.956,
            4.958,
            4.961,
            4.962,
            4.963,
            4.966,
            4.97,
            4.971,
            4.973,
            4.975,
            4.976,
            4.978,
            4.98,
            4.981,
            4.984,
            4.986,
            4.988,
            4.989,
            4.992,
            4.995,
            5.0,
            5.001,
            5.004,
            5.009,
            5.014,
            5.018,
            5.024,
            5.029
          ],
          [
            100.043,
            100.071,
            100.114,
            98.305,
            98.334,
            98.391,
            96.582,
            96.625,
            96.668,
            94.873,
            98.62,
            98.677,
            98.72,
            106.141,
            108.022,
            100.657,
            97.011,
            97.054,
            97.097,
            97.139,
            95.331,
            93.522,
            91.741,
            93.622,
            89.975,
            91.87,
            91.913,
            91.97,
            91.998,
            91.664,
            90.383,
            93.685,
            95.317,
            97.372,
            106.924,
            109.819,
            117.725,
            126.457,
            158.104,
            157.667,
            104.736,
            75.968,
            72.201,
            76.752,
            81.717,
            87.099,
            89.984,
            90.783,
            88.609,
            86.8,
            88.681,
            87.077,
            87.05,
            87.855,
            87.828,
            90.273,
            91.897,
            89.385,
            86.045,
            79.4,
            67.79,
            90.075,
            112.36,
            157.778,
            225.507,
            232.918,
            103.96,
            53.51,
            30.335,
            26.975,
            27.768,
            30.2,
            32.645,
            31.785,
            32.575,
            31.761,
            33.655,
            33.67,
            37.388,
            35.564,
            30.023,
            20.779,
            18.97,
            24.568,
            46.804,
            70.891,
            72.757,
            69.082,
            91.318,
            108.013,
            115.434,
            167.299,
            176.587,
            137.713,
            128.483,
            119.224,
            113.697,
            108.156,
            100.66,
            94.04,
            90.73,
            90.73,
            90.73,
            94.04,
            94.04,
            117.22,
            133.77,
            190.07,
            292.72,
            468.21,
            673.51,
            693.38,
            570.86,
            411.92,
            319.21,
            239.74,
            163.58,
            147.02,
            130.46,
            123.84,
            113.91,
            123.256,
            112.16,
            101.063,
            95.522,
            91.847,
            90.009,
            82.617,
            65.965,
            54.882,
            51.193,
            45.652,
            45.666,
            45.709,
            45.738,
            42.048,
            38.388,
            36.579,
            31.052,
            29.243,
            29.272,
            25.597,
            25.64,
            23.816,
            16.423,
            12.734,
            10.925,
            9.088,
            10.954,
            18.389,
            18.432,
            22.179,
            25.911,
            33.332,
            29.629,
            35.213,
            37.079,
            44.5,
            50.07,
            55.654,
            63.076,
            66.793,
            72.363,
            79.799,
            83.517,
            87.249,
            85.397,
            92.833,
            100.269,
            103.987,
            105.853,
            111.437,
            122.576,
            141.108,
            129.997,
            135.581,
            120.796,
            117.106,
            117.121,
            122.719,
            128.317,
            128.346,
            133.958,
            133.987,
            134.015,
            132.221,
            134.101,
            135.981,
            137.89,
            136.096,
            134.287,
            134.33,
            132.506,
            134.401,
            136.267,
            138.133,
            136.31,
            134.473,
            130.812,
            130.855,
            130.912,
            129.103,
            129.146,
            129.203,
            125.528,
            127.437,
            123.776,
            127.537,
            125.714,
            125.757,
            125.814,
            131.412,
            144.403,
            144.417,
            137.025,
            131.483,
            129.66,
            124.148,
            129.732,
            131.626,
            131.655,
            133.55,
            133.592,
            139.162,
            141.028,
            144.76,
            152.182,
            154.048,
            163.321,
            176.298,
            194.845,
            228.191,
            259.7,
            272.677,
            231.966,
            224.573,
            215.329,
            172.752,
            165.359,
            150.559,
            139.476,
            133.935,
            135.816,
            128.437,
            126.628,
            124.791,
            128.551,
            130.432,
            134.164,
            132.355,
            134.235,
            133.57,
            138.83,
            142.76,
            144.06,
            147.99,
            157.19,
            166.4,
            176.93,
            191.41,
            217.76,
            226.98,
            242.8,
            240.14,
            203.21,
            88.49,
            64.73,
            33.07,
            17.24,
            19.86,
            23.8,
            35.65,
            42.22,
            54.06,
            59.32,
            64.58,
            69.82,
            72.44,
            73.73,
            73.71,
            78.97,
            81.58,
            84.737,
            86.617,
            88.498,
            90.378,
            92.244,
            99.694,
            99.751,
            103.498,
            99.837,
            99.894,
            101.789,
            105.521,
            103.726,
            111.177,
            114.923,
            111.262,
            115.023,
            120.621,
            124.368,
            126.262,
            131.875,
            137.473,
            143.071,
            152.388,
            167.245,
            176.518,
            180.236,
            187.672,
            195.093,
            206.233,
            222.913,
            234.038,
            241.474,
            243.354,
            243.383,
            219.324,
            204.524,
            180.465,
            160.109,
            137.902,
            117.546,
            99.057,
            91.678,
            76.878,
            69.5,
            62.092,
            54.714,
            52.876,
            51.039,
            47.35,
            49.23,
            43.717,
            47.464,
            45.655,
            53.105,
            62.407,
            69.871,
            81.025,
            97.734,
            99.643,
            95.982,
            88.618,
            79.402,
            81.311,
            85.043,
            86.937,
            86.966,
            85.157,
            88.875,
            88.918,
            88.946,
            94.53,
            94.573,
            77.936,
            63.136,
            50.202,
            29.846,
            18.75,
            20.616,
            41.014,
            63.25,
            78.078,
            70.7,
            61.455,
            57.78,
            59.661,
            61.541,
            63.421,
            69.02,
            69.048,
            74.646,
            72.823,
            71.029,
            74.789,
            82.239,
            82.268,
            84.177,
            93.493,
            97.211,
            93.536,
            97.268,
            102.852,
            106.584,
            112.168,
            117.738,
            125.159,
            132.581,
            141.868,
            156.697,
            162.267,
            175.258,
            182.694,
            179.004,
            164.204,
            123.479,
            92.013,
            60.546,
            38.339,
            25.391,
            18.012,
            14.323,
            12.485,
            16.203,
            18.084,
            18.112,
            23.711,
            25.577,
            25.605,
            29.352,
            31.246,
            29.437,
            33.198,
            33.241
          ]
        ]
      }
    }
  },
  "experimental_conditions": {
    "001": {
      "correction": {
        "0": [
          {
            "x4_code": null,
            "free_txt": [
              "The effect of the 34S in the target was estimated by",
              "ignoring any resonance structure in its cross section",
              "and assuming that its contribution to the observed",
              "yield was due to Rutherford and hard sphere",
              "scattering only.",
              "The contribution from hard sphere scatt. to Rutherford",
              "scatt. cross section at 1.400 MeV used for norm. is",
              "less that 1% forward of 125 deg. and 2.3% at 161.7 deg."
            ]
          }
        ]
      },
      "detector": {
        "0": [
          {
            "x4_code": "(SI)",
            "free_txt": [
              "Four silicon detectors placed in a chamber at",
              "88.3, 121.7 141.7 and 161.7 degree"
            ]
          }
        ]
      },
      "err-analys": {
        "0": [
          {
            "x4_code": "(ERR-1)",
            "free_txt": [
              " Uncertainty due to effects of the 34S",
              "contribution - 1%"
            ]
          }
        ]
      },
      "facility": {
        "0": [
          {
            "x4_code": "(VDGT,3NZLNZA)",
            "free_txt": []
          }
        ]
      },
      "monitor": {
        "0": [
          {
            "x4_code": "(16-S-32(P,EL)16-S-32,,DA,,RTH)",
            "free_txt": []
          }
        ]
      },
      "sample": {
        "0": [
          {
            "x4_code": null,
            "free_txt": [
              "Thin target of Sb2S (approximately 1 keV thick for 3",
              "MeV protons) evaporated onto a thin carbon backing"
            ]
          }
        ]
      },
      "status": {
        "0": [
          {
            "x4_code": "(CURVE)",
            "free_txt": [
              " Data scanned from Fig. 1 and Fig 2."
            ]
          }
        ]
      }
    },
    "002": {
      "err-analys": {
        "0": [
          {
            "x4_code": "(DATA-ERR,,5.)",
            "free_txt": [
              " No information on source of uncertainty."
            ]
          }
        ]
      }
    },
    "003": {
      "err-analys": {
        "0": [
          {
            "x4_code": "(DATA-ERR,,10.)",
            "free_txt": [
              "No information on source of uncertainty."
            ]
          }
        ]
      }
    },
    "004": {
      "err-analys": {
        "0": [
          {
            "x4_code": "(DATA-ERR,,10.)",
            "free_txt": [
              "No information on source of uncertainty."
            ]
          }
        ]
      }
    },
    "005": {
      "err-analys": {
        "0": [
          {
            "x4_code": "(DATA-ERR,,10.)",
            "free_txt": [
              "No information on source of uncertainty."
            ]
          }
        ]
      }
    }
  }
}