{
  "entry": "14091",
  "last_updated": "2018-01-23",
  "number_of_revisions": "3",
  "histories": [
    {
      "x4_code": "(20061027C)",
      "free_txt": [
        " DR"
      ]
    },
    {
      "x4_code": "(20100617A)",
      "free_txt": [
        " OS. METHOD added"
      ]
    },
    {
      "x4_code": "(20171113A)",
      "free_txt": [
        " OS. REACTIONs updated"
      ]
    }
  ],
  "bib_record": {
    "title": "Characteristics of a lead slowing-down spectrometer coupled to the LANSCE accelerator",
    "authors": [
      {
        "name": "D.Rochman"
      },
      {
        "name": "R.C.Haight"
      },
      {
        "name": "J.M.O'Donnell"
      },
      {
        "name": "A.Michaudon"
      },
      {
        "name": "S.A.Wender"
      },
      {
        "name": "D.J.Vieira"
      },
      {
        "name": "E.M.Bond"
      },
      {
        "name": "T.A.Bredeweg"
      },
      {
        "name": "A.Kronenberg"
      },
      {
        "name": "J.B.Wilhelmy"
      },
      {
        "name": "T.Ethvignot"
      },
      {
        "name": "T.Granier"
      },
      {
        "name": "M.Petit"
      },
      {
        "name": "Y.Danon"
      }
    ],
    "institutes": [
      {
        "x4_code": "(1USARPI)",
        "free_txt": ""
      },
      {
        "x4_code": "(1USALAS)",
        "free_txt": ""
      },
      {
        "x4_code": "(1USABNL)",
        "free_txt": ""
      },
      {
        "x4_code": "(2FR BRC)",
        "free_txt": ""
      }
    ],
    "references": [
      {
        "x4_code": "(J,NIM/A,550,397,2005)",
        "free_txt": [],
        "publication_year": "2005",
        "doi": null,
        "pointer": "0"
      }
    ],
    "facilities": [
      {
        "x4_code": "(LINAC,1USALAS)",
        "free_txt": [
          " Los Alamos Neutron Science Center",
          " (LANSCE)"
        ],
        "pointer": "0",
        "facility_type": "(LINAC)",
        "institute": "(1USALAS)"
      }
    ]
  },
  "reactions": {
    "002": {
      "0": {
        "x4_code": "(92-U-235(N,F),,SIG,,SDT)",
        "children": [
          {
            "code": [
              "92-U-235",
              [
                "N,F"
              ],
              ",,SIG,,SDT"
            ],
            "type": null,
            "target": "92-U-235",
            "process": "N,F",
            "sf49": ",,SIG,,SDT",
            "sf4": null,
            "sf5": null,
            "sf6": "SIG",
            "sf7": null,
            "sf8": "SDT",
            "sf9": null
          }
        ],
        "type": null,
        "free_text": "",
        "pointer": "0"
      }
    },
    "003": {
      "0": {
        "x4_code": "(94-PU-239(N,F),,SIG,,SDT/AV)",
        "children": [
          {
            "code": [
              "94-PU-239",
              [
                "N,F"
              ],
              ",,SIG,,SDT/AV"
            ],
            "type": null,
            "target": "94-PU-239",
            "process": "N,F",
            "sf49": ",,SIG,,SDT/AV",
            "sf4": null,
            "sf5": null,
            "sf6": "SIG",
            "sf7": null,
            "sf8": "SDT/AV",
            "sf9": null
          }
        ],
        "type": null,
        "free_text": " Data averaged over large energy bins",
        "pointer": "0"
      }
    }
  },
  "data_tables": {
    "001": {
      "common": null
    },
    "002": {
      "common": null,
      "data": {
        "heads": [
          "EN",
          "DATA"
        ],
        "units": [
          "KEV",
          "B"
        ],
        "data": [
          [
            20.403,
            19.695,
            19.024,
            18.387,
            17.781,
            17.205,
            16.656,
            16.133,
            15.635,
            15.159,
            14.704,
            14.27,
            13.854,
            13.457,
            13.076,
            12.712,
            12.362,
            12.026,
            11.704,
            11.395,
            11.098,
            10.812,
            10.538,
            10.273,
            10.019,
            9.7734,
            9.537,
            9.3091,
            9.0893,
            8.8772,
            8.6724,
            8.4747,
            8.2836,
            8.0989,
            7.9203,
            7.7476,
            7.5804,
            7.4186,
            7.262,
            7.1102,
            6.9631,
            6.8206,
            6.6824,
            6.5484,
            6.4183,
            6.2921,
            6.1696,
            6.0506,
            5.935,
            5.8227,
            5.7136,
            5.6075,
            5.5043,
            5.4039,
            5.3063,
            5.2113,
            5.1188,
            5.0288,
            4.9411,
            4.8557,
            4.7725,
            4.6914,
            4.6123,
            4.5353,
            4.4601,
            4.3868,
            4.3153,
            4.2456,
            4.1775,
            4.111,
            4.0461,
            3.9827,
            3.9208,
            3.8604,
            3.8013,
            3.7436,
            3.6872,
            3.632,
            3.5781,
            3.5254,
            3.4738,
            3.4233,
            3.374,
            3.3257,
            3.2784,
            3.2321,
            3.1868,
            3.1425,
            3.099,
            3.0565,
            3.0148,
            2.974,
            2.934,
            2.8948,
            2.8564,
            2.8187,
            2.7818,
            2.7456,
            2.7101,
            2.6753,
            2.6412,
            2.6077,
            2.5748,
            2.5426,
            2.5109,
            2.4799,
            2.4494,
            2.4194,
            2.3901,
            2.3612,
            2.3329,
            2.3051,
            2.2777,
            2.2509,
            2.2245,
            2.1986,
            2.1732,
            2.1481,
            2.1235,
            2.0994,
            2.0756,
            2.0522,
            2.0293,
            2.0067,
            1.9845,
            1.9626,
            1.9412,
            1.92,
            1.8992,
            1.8788,
            1.8586,
            1.8388,
            1.8194,
            1.8002,
            1.7813,
            1.7627,
            1.7444,
            1.7264,
            1.7087,
            1.6912,
            1.674,
            1.6571,
            1.6404,
            1.624,
            1.6078,
            1.5918,
            1.5761,
            1.5607,
            1.5454,
            1.5304,
            1.5156,
            1.501,
            1.4866,
            1.4724,
            1.4585,
            1.4447,
            1.4311,
            1.4177,
            1.4045,
            1.3915,
            1.3786,
            1.366,
            1.3535,
            1.3411,
            1.329,
            1.317,
            1.3052,
            1.2935,
            1.282,
            1.2706,
            1.2594,
            1.2484,
            1.2374,
            1.2267,
            1.216,
            1.2055,
            1.1952,
            1.185,
            1.1749,
            1.1649,
            1.155,
            1.1453,
            1.1357,
            1.1263,
            1.1169,
            1.1077,
            1.0985,
            1.0895,
            1.0806,
            1.0718,
            1.0631,
            1.0545,
            1.0461,
            1.0377,
            1.0294,
            1.0212,
            1.0131,
            1.0051,
            0.99335,
            0.97793,
            0.96287,
            0.94815,
            0.93378,
            0.91971,
            0.90597,
            0.89253,
            0.87939,
            0.86654,
            0.85397,
            0.84167,
            0.82964,
            0.81786,
            0.80632,
            0.79504,
            0.78397,
            0.77316,
            0.76255,
            0.75217,
            0.74199,
            0.73203,
            0.72225,
            0.71268,
            0.70329,
            0.69409,
            0.68507,
            0.67622,
            0.66754,
            0.65902,
            0.65068,
            0.64248,
            0.63445,
            0.62655,
            0.61882,
            0.61121,
            0.60376,
            0.59643,
            0.58924,
            0.58217,
            0.57524,
            0.56842,
            0.56173,
            0.55515,
            0.54869,
            0.54234,
            0.53611,
            0.52997,
            0.52394,
            0.51802,
            0.51219,
            0.50647,
            0.50084,
            0.49529,
            0.48985,
            0.48449,
            0.47922,
            0.47403,
            0.46893,
            0.46392,
            0.45898,
            0.45411,
            0.44933,
            0.44462,
            0.43999,
            0.43543,
            0.43094,
            0.42651,
            0.42215,
            0.41786,
            0.41364,
            0.40948,
            0.40539,
            0.40135,
            0.39737,
            0.39345,
            0.38959,
            0.38578,
            0.38204,
            0.37834,
            0.37471,
            0.37112,
            0.36758,
            0.3641,
            0.36066,
            0.35727,
            0.35393,
            0.35063,
            0.34739,
            0.34418,
            0.34102,
            0.33791,
            0.33483,
            0.3318,
            0.32881,
            0.32586,
            0.32294,
            0.32007,
            0.31723,
            0.31444,
            0.31167,
            0.30895,
            0.30627,
            0.30361,
            0.301,
            0.29841,
            0.29585,
            0.29334,
            0.29085,
            0.28839,
            0.28597,
            0.28121,
            0.27887,
            0.27657,
            0.2743,
            0.27204,
            0.26982,
            0.26763,
            0.26546,
            0.26332,
            0.2612,
            0.25911,
            0.25704,
            0.255,
            0.25298,
            0.25099,
            0.24902,
            0.24707,
            0.24515,
            0.24325,
            0.24137,
            0.23951,
            0.23768,
            0.23586,
            0.23407,
            0.23229,
            0.23053,
            0.2288,
            0.22709,
            0.22539,
            0.22372,
            0.22206,
            0.22042,
            0.21879,
            0.21719,
            0.2156,
            0.21404,
            0.21249,
            0.21095,
            0.20943,
            0.20793,
            0.20644,
            0.20497,
            0.20352,
            0.20208,
            0.20066,
            0.19925,
            0.19785,
            0.19648,
            0.19511,
            0.19376,
            0.19242,
            0.1911,
            0.18979,
            0.18849,
            0.18721,
            0.18593,
            0.18468,
            0.18344,
            0.18221,
            0.18099,
            0.17978,
            0.17858,
            0.1774,
            0.17623,
            0.17507,
            0.17392,
            0.17278,
            0.17166,
            0.17054,
            0.16944,
            0.16834,
            0.16726,
            0.16619,
            0.16512,
            0.16407,
            0.16303,
            0.162,
            0.16098,
            0.15997,
            0.15896,
            0.15796,
            0.15699,
            0.15601,
            0.15504,
            0.15408,
            0.15313,
            0.1522,
            0.15126,
            0.15034,
            0.14943,
            0.14852,
            0.14762,
            0.14673,
            0.14585,
            0.14497,
            0.14411,
            0.14325,
            0.1424,
            0.14156,
            0.14072,
            0.13989,
            0.13908,
            0.13826,
            0.13745,
            0.13665,
            0.13586,
            0.13508,
            0.1343,
            0.13353,
            0.13276,
            0.132,
            0.13125,
            0.13051,
            0.12976,
            0.12903,
            0.1283,
            0.12758,
            0.12687,
            0.12615,
            0.12546,
            0.12476,
            0.12406,
            0.12338,
            0.1227,
            0.12202,
            0.12136,
            0.1207,
            0.12004,
            0.11938,
            0.11873,
            0.11809,
            0.11746,
            0.11683,
            0.1162,
            0.11558,
            0.11496,
            0.11435,
            0.11374,
            0.11314,
            0.11254,
            0.11195,
            0.11136,
            0.11078,
            0.1102,
            0.10963,
            0.10906,
            0.10849,
            0.10793,
            0.10737,
            0.10682,
            0.10627,
            0.10573,
            0.10519,
            0.10466,
            0.10412,
            0.1036,
            0.10307,
            0.10255,
            0.10204,
            0.10153,
            0.10101,
            0.10051,
            0.10002,
            0.09902,
            0.09757,
            0.09614,
            0.09474,
            0.09338,
            0.09205,
            0.09074,
            0.08947,
            0.08821,
            0.08699,
            0.08579,
            0.08461,
            0.08346,
            0.08233,
            0.08123,
            0.08014,
            0.07908,
            0.07804,
            0.07702,
            0.07602,
            0.07504,
            0.07408,
            0.07313,
            0.07221,
            0.07129,
            0.0704,
            0.06953,
            0.06867,
            0.06783,
            0.067,
            0.06619,
            0.06539,
            0.06461,
            0.06384,
            0.06309,
            0.06234,
            0.06161,
            0.06089,
            0.06019,
            0.0595,
            0.05882,
            0.05815,
            0.05749,
            0.05685,
            0.05621,
            0.05559,
            0.05497,
            0.05437,
            0.05377,
            0.05319,
            0.05262,
            0.05205,
            0.05149,
            0.05094,
            0.0504,
            0.04987,
            0.04935,
            0.04884,
            0.04833,
            0.04783,
            0.04734,
            0.04686,
            0.04638,
            0.04591,
            0.04545,
            0.045,
            0.04455,
            0.04411,
            0.04367,
            0.04324,
            0.04283,
            0.04241,
            0.042,
            0.04159,
            0.0412,
            0.04081,
            0.04042,
            0.04004,
            0.03966,
            0.03929,
            0.03892,
            0.03856,
            0.03821,
            0.03786,
            0.03751,
            0.03717,
            0.03683,
            0.0365,
            0.03617,
            0.03585,
            0.03553,
            0.03522,
            0.03491,
            0.0346,
            0.03429,
            0.034,
            0.0337,
            0.03342,
            0.03313,
            0.03284,
            0.03256,
            0.03229,
            0.03202,
            0.03175,
            0.03148,
            0.03122,
            0.03096,
            0.03071,
            0.03045,
            0.0302,
            0.02995,
            0.02971,
            0.02947,
            0.02923,
            0.029,
            0.02877,
            0.02854,
            0.02831,
            0.02809,
            0.02787,
            0.02765,
            0.02743,
            0.02722,
            0.02701,
            0.0268,
            0.02659,
            0.02639,
            0.02619,
            0.02599,
            0.02579,
            0.0256,
            0.0254,
            0.02521,
            0.02502,
            0.02484,
            0.02466,
            0.02448,
            0.0243,
            0.02412,
            0.02394,
            0.02377,
            0.02359,
            0.02342,
            0.02325,
            0.02309,
            0.02292,
            0.02276,
            0.0226,
            0.02244,
            0.02228,
            0.02212,
            0.02197,
            0.02182,
            0.02167,
            0.02151,
            0.02136,
            0.02122,
            0.02107,
            0.02093,
            0.02079,
            0.02065,
            0.0205,
            0.02037,
            0.02023,
            0.02009,
            0.01996,
            0.01983,
            0.0197,
            0.01957,
            0.01944,
            0.01931,
            0.01919,
            0.01906,
            0.01894,
            0.01881,
            0.01869,
            0.01857,
            0.01845,
            0.01834,
            0.01822,
            0.0181,
            0.01799,
            0.01787,
            0.01776,
            0.01765,
            0.01754,
            0.01743,
            0.01732,
            0.01722,
            0.01711,
            0.017,
            0.0169,
            0.0168,
            0.0167,
            0.01659,
            0.01649,
            0.01639,
            0.01629,
            0.0162,
            0.0161,
            0.016,
            0.01591,
            0.01581,
            0.01572,
            0.01563,
            0.01554,
            0.01545,
            0.01536,
            0.01527,
            0.01517,
            0.01509,
            0.015,
            0.01491,
            0.01483,
            0.01474,
            0.01466,
            0.01457,
            0.01449,
            0.01441,
            0.01433,
            0.01425,
            0.01417,
            0.01409,
            0.01401,
            0.01393,
            0.01385,
            0.01378,
            0.0137,
            0.01363,
            0.01355,
            0.01348,
            0.0134,
            0.01333,
            0.01326,
            0.01319,
            0.01311,
            0.01304,
            0.01297,
            0.01291,
            0.01283,
            0.01277,
            0.0127,
            0.01263,
            0.01257,
            0.0125,
            0.01243,
            0.01236,
            0.01231,
            0.01223,
            0.01218,
            0.01211,
            0.01205,
            0.01199,
            0.01193,
            0.01187,
            0.01181,
            0.01175,
            0.01168,
            0.01163,
            0.01157,
            0.01151,
            0.01145,
            0.01138,
            0.01134,
            0.01128,
            0.01122,
            0.01117,
            0.01111,
            0.01105,
            0.011,
            0.01095,
            0.01089,
            0.01083,
            0.01078,
            0.01073,
            0.01068,
            0.01063,
            0.01057,
            0.01052,
            0.01047,
            0.01042,
            0.01037,
            0.01032,
            0.01027,
            0.01022,
            0.01017,
            0.01013,
            0.01008,
            0.01003,
            0.00994,
            0.0098,
            0.00966,
            0.00953,
            0.0094,
            0.00927,
            0.00914,
            0.00902,
            0.0089,
            0.00878,
            0.00867,
            0.00855,
            0.00844,
            0.00833,
            0.00823,
            0.00812,
            0.00802,
            0.00792,
            0.00782,
            0.00772,
            0.00763,
            0.00753,
            0.00744,
            0.00735,
            0.00726,
            0.00718,
            0.00709,
            0.00701,
            0.00692,
            0.00684,
            0.00676,
            0.00669,
            0.00661,
            0.00653,
            0.00646,
            0.00639,
            0.00631,
            0.00624,
            0.00617,
            0.00611,
            0.00604,
            0.00597,
            0.00591,
            0.00584,
            0.00578,
            0.00572,
            0.00566,
            0.0056,
            0.00554,
            0.00548,
            0.00542,
            0.00537,
            0.00531,
            0.00526,
            0.00521,
            0.00515,
            0.0051,
            0.00505,
            0.005,
            0.00495,
            0.0049,
            0.00485,
            0.0048,
            0.00476,
            0.00471,
            0.00466,
            0.00462,
            0.00458,
            0.00453,
            0.00449,
            0.00445,
            0.00441,
            0.00436,
            0.00432,
            0.00428,
            0.00424,
            0.00421,
            0.00417,
            0.00413,
            0.00409,
            0.00405,
            0.00402,
            0.00398,
            0.00395,
            0.00391,
            0.00388,
            0.00384,
            0.00381,
            0.00378,
            0.00374,
            0.00371,
            0.00368,
            0.00365,
            0.00362,
            0.00359,
            0.00356,
            0.00353,
            0.0035,
            0.00347,
            0.00344,
            0.00341,
            0.00338,
            0.00335,
            0.00333,
            0.0033,
            0.00327,
            0.00325,
            0.00322,
            0.00319,
            0.00317,
            0.00314,
            0.00312,
            0.0031,
            0.00307,
            0.00305,
            0.00302,
            0.003,
            0.00298,
            0.00295,
            0.00293,
            0.00291,
            0.00289,
            0.00286,
            0.00284,
            0.00282,
            0.0028,
            0.00278,
            0.00276,
            0.00274,
            0.00272,
            0.0027,
            0.00268,
            0.00266,
            0.00264,
            0.00262,
            0.0026,
            0.00258,
            0.00257,
            0.00255,
            0.00253,
            0.00251,
            0.00249,
            0.00248,
            0.00246,
            0.00244,
            0.00242,
            0.00241,
            0.00239,
            0.00237,
            0.00236,
            0.00234,
            0.00232,
            0.00231,
            0.00229,
            0.00228,
            0.00226,
            0.00225,
            0.00223,
            0.00222,
            0.0022,
            0.00219,
            0.00217,
            0.00216,
            0.00215,
            0.00213,
            0.00212,
            0.0021,
            0.00209,
            0.00208,
            0.00206,
            0.00205,
            0.00204,
            0.00202,
            0.00201,
            0.002,
            0.00199,
            0.00197,
            0.00196,
            0.00195,
            0.00194,
            0.00192,
            0.00191,
            0.0019,
            0.00189,
            0.00188,
            0.00187,
            0.00185,
            0.00184,
            0.00183,
            0.00182,
            0.00181,
            0.0018,
            0.00179,
            0.00178,
            0.00177,
            0.00176,
            0.00175,
            0.00174,
            0.00173,
            0.00172,
            0.00171,
            0.0017,
            0.00169,
            0.00168,
            0.00167,
            0.00166,
            0.00165,
            0.00164,
            0.00163,
            0.00162,
            0.00161,
            0.0016,
            0.00159,
            0.00158,
            0.00157,
            0.00157,
            0.00156,
            0.00155,
            0.00154,
            0.00153,
            0.00152,
            0.00151,
            0.00151,
            0.0015,
            0.00149,
            0.00148,
            0.00147,
            0.00146,
            0.00146,
            0.00145,
            0.00144,
            0.00143,
            0.00143,
            0.00142,
            0.00141,
            0.0014,
            0.0014,
            0.00139,
            0.00138,
            0.00137,
            0.00137,
            0.00136,
            0.00135,
            0.00135,
            0.00134,
            0.00133,
            0.00132,
            0.00132,
            0.00131,
            0.0013,
            0.0013,
            0.00129,
            0.00128,
            0.00128,
            0.00127,
            0.00127,
            0.00126,
            0.00125,
            0.00125,
            0.00124,
            0.00123,
            0.00123,
            0.00122,
            0.00122,
            0.00121,
            0.0012,
            0.0012,
            0.00119,
            0.00119,
            0.00118,
            0.00117,
            0.00117,
            0.00116,
            0.00116,
            0.00115,
            0.00115,
            0.00114,
            0.00114,
            0.00113,
            0.00112,
            0.00112,
            0.00111,
            0.00111,
            0.0011,
            0.0011,
            0.00109,
            0.00109,
            0.00108,
            0.00108,
            0.00107,
            0.00107,
            0.00106,
            0.00106,
            0.00105,
            0.00105,
            0.00104,
            0.00104,
            0.00103,
            0.00103,
            0.00103,
            0.00102,
            0.00102,
            0.00101,
            0.00101,
            0.001,
            0.00099326,
            0.00098007,
            0.00096715,
            0.00095448,
            0.00094205,
            0.00092987,
            0.00091792,
            0.00090621,
            0.00089471,
            0.00088343,
            0.00087237,
            0.00086151,
            0.00085085,
            0.00084039,
            0.00083012,
            0.00082003,
            0.00081013,
            0.00080041,
            0.00079086,
            0.00078149,
            0.00077227,
            0.00076322,
            0.00075433,
            0.00074559,
            0.00073701,
            0.00072857,
            0.00072027,
            0.00071212,
            0.0007041,
            0.00069622,
            0.00068847,
            0.00068085,
            0.00067335,
            0.00066598,
            0.00065873,
            0.00065159,
            0.00064457,
            0.00063767,
            0.00063087,
            0.00062418,
            0.0006176,
            0.00061112,
            0.00060474,
            0.00059847,
            0.00059229,
            0.0005862,
            0.00058021,
            0.00057431,
            0.0005685,
            0.00056277,
            0.00055714,
            0.00055158,
            0.00054611,
            0.00054072,
            0.00053541,
            0.00053018,
            0.00052503,
            0.00051995,
            0.00051494,
            0.00051,
            0.00050514,
            0.00050034,
            0.00049561,
            0.00049095,
            0.00048636,
            0.00048183,
            0.00047736,
            0.00047295,
            0.0004686,
            0.00046432,
            0.00046009,
            0.00045592,
            0.00045181,
            0.00044775,
            0.00044375,
            0.00043979,
            0.0004359,
            0.00043205,
            0.00042826,
            0.00042451,
            0.00042081,
            0.00041716,
            0.00041356,
            0.00041001,
            0.0004065,
            0.00040303,
            0.00039961,
            0.00039624,
            0.0003929,
            0.00038961,
            0.00038636,
            0.00038315,
            0.00037998,
            0.00037684,
            0.00037375,
            0.0003707,
            0.00036768,
            0.0003647,
            0.00036175,
            0.00035884,
            0.00035597,
            0.00035313,
            0.00035032,
            0.00034755,
            0.00034481,
            0.0003421,
            0.00033942,
            0.00033678,
            0.00033416,
            0.00033158,
            0.00032903,
            0.0003265,
            0.00032401,
            0.00032154,
            0.0003191,
            0.00031669,
            0.0003143,
            0.00031195,
            0.00030962,
            0.00030731,
            0.00030503,
            0.00030278,
            0.00030055,
            0.00029834,
            0.00029616,
            0.00029401,
            0.00029187,
            0.00028976,
            0.00028768,
            0.00028561,
            0.00028357,
            0.00028155,
            0.00027955,
            0.00027757,
            0.00027562,
            0.00027368,
            0.00027176,
            0.00026987,
            0.00026799,
            0.00026613,
            0.0002643,
            0.00026248,
            0.00026068,
            0.0002589,
            0.00025713,
            0.00025539,
            0.00025366,
            0.00025195,
            0.00025026,
            0.00024858,
            0.00024692,
            0.00024528,
            0.00024365,
            0.00024204,
            0.00024045,
            0.00023887,
            0.00023731,
            0.00023576,
            0.00023423,
            0.00023271,
            0.00023121,
            0.00022972,
            0.00022824,
            0.00022678,
            0.00022534,
            0.00022391,
            0.00022249,
            0.00022108,
            0.00021969,
            0.00021831,
            0.00021695,
            0.00021559,
            0.00021425,
            0.00021292,
            0.00021161,
            0.0002103,
            0.00020901,
            0.00020773,
            0.00020647,
            0.00020521,
            0.00020396,
            0.00020273,
            0.00020151,
            0.0002003,
            0.0001991,
            0.00019791,
            0.00019673,
            0.00019556,
            0.0001944,
            0.00019325,
            0.00019211,
            0.00019099,
            0.00018987,
            0.00018876,
            0.00018766,
            0.00018657,
            0.00018549,
            0.00018442,
            0.00018336,
            0.00018231,
            0.00018127,
            0.00018023,
            0.00017921,
            0.00017819,
            0.00017718,
            0.00017618,
            0.00017519,
            0.00017421,
            0.00017324,
            0.00017227,
            0.00017131,
            0.00017036,
            0.00016942,
            0.00016849,
            0.00016756,
            0.00016664,
            0.00016573,
            0.00016483,
            0.00016393,
            0.00016304,
            0.00016216,
            0.00016128,
            0.00016042,
            0.00015955,
            0.0001587,
            0.00015785,
            0.00015701,
            0.00015618,
            0.00015535,
            0.00015453,
            0.00015372,
            0.00015291,
            0.00015211,
            0.00015131,
            0.00015052,
            0.00014974,
            0.00014897,
            0.00014819,
            0.00014743,
            0.00014667,
            0.00014592,
            0.00014517,
            0.00014443,
            0.00014369,
            0.00014296,
            0.00014224,
            0.00014152,
            0.00014081,
            0.0001401,
            0.0001394,
            0.0001387,
            0.00013801,
            0.00013732,
            0.00013664,
            0.00013596,
            0.00013529,
            0.00013462,
            0.00013396,
            0.0001333,
            0.00013265,
            0.000132,
            0.00013136,
            0.00013072,
            0.00013009,
            0.00012946,
            0.00012883,
            0.00012821,
            0.0001276,
            0.00012699,
            0.00012638,
            0.00012578,
            0.00012518,
            0.00012459,
            0.000124,
            0.00012341,
            0.00012283,
            0.00012225,
            0.00012168,
            0.00012111,
            0.00012055,
            0.00011999,
            0.00011943,
            0.00011888,
            0.00011833,
            0.00011778,
            0.00011724,
            0.0001167,
            0.00011617,
            0.00011563,
            0.00011511,
            0.00011458,
            0.00011406,
            0.00011355,
            0.00011303,
            0.00011252,
            0.00011202,
            0.00011152,
            0.00011102,
            0.00011052,
            0.00011003,
            0.00010954,
            0.00010905,
            0.00010857,
            0.00010809,
            0.00010761,
            0.00010714,
            0.00010667,
            0.0001062,
            0.00010574,
            0.00010528,
            0.00010482,
            0.00010436,
            0.00010391,
            0.00010346,
            0.00010302,
            0.00010257,
            0.00010213,
            0.00010169,
            0.00010126,
            0.00010083,
            0.0001004,
            9.9971e-05,
            9.9547e-05,
            9.9126e-05,
            9.8708e-05,
            9.8292e-05,
            9.7878e-05,
            9.7468e-05,
            9.706e-05,
            9.6654e-05,
            9.6251e-05,
            9.5851e-05,
            9.5453e-05,
            9.5057e-05,
            9.4664e-05,
            9.4273e-05,
            9.3885e-05,
            9.3499e-05,
            9.3116e-05,
            9.2735e-05,
            9.2356e-05,
            9.1979e-05,
            9.1605e-05,
            9.1233e-05,
            9.0864e-05,
            9.0496e-05,
            9.0131e-05,
            8.9768e-05,
            8.9408e-05,
            8.9049e-05,
            8.8693e-05,
            8.8338e-05,
            8.7986e-05,
            8.7636e-05,
            8.7288e-05,
            8.6942e-05,
            8.6598e-05,
            8.6256e-05,
            8.5917e-05,
            8.5579e-05,
            8.5243e-05,
            8.4909e-05,
            8.4577e-05,
            8.4247e-05,
            8.3919e-05,
            8.3593e-05,
            8.3269e-05,
            8.2947e-05,
            8.2626e-05,
            8.2307e-05,
            8.1991e-05,
            8.1676e-05,
            8.1363e-05,
            8.1051e-05,
            8.0742e-05,
            8.0434e-05,
            8.0128e-05,
            7.9824e-05,
            7.9521e-05,
            7.922e-05,
            7.8921e-05,
            7.8624e-05,
            7.8328e-05,
            7.8034e-05,
            7.7741e-05,
            7.745e-05,
            7.7161e-05,
            7.6874e-05,
            7.6588e-05,
            7.6303e-05,
            7.6021e-05,
            7.5739e-05,
            7.546e-05,
            7.5182e-05,
            7.4905e-05,
            7.463e-05,
            7.4357e-05,
            7.4084e-05,
            7.3814e-05,
            7.3545e-05,
            7.3277e-05,
            7.3011e-05,
            7.2746e-05,
            7.2483e-05,
            7.2221e-05,
            7.1961e-05,
            7.1788e-05
          ],
          [
            2.289,
            2.2867,
            2.3851,
            2.3401,
            2.3836,
            2.4289,
            2.4463,
            2.5482,
            2.5642,
            2.6623,
            2.6152,
            2.66,
            2.638,
            2.7485,
            2.798,
            2.8008,
            2.8625,
            2.9083,
            2.8973,
            2.9186,
            2.9767,
            3.049,
            3.1014,
            3.128,
            3.1552,
            3.227,
            3.21,
            3.3012,
            3.3027,
            3.3355,
            3.44,
            3.4092,
            3.3775,
            3.5021,
            3.5216,
            3.6697,
            3.7842,
            3.7802,
            3.8211,
            3.8955,
            3.8208,
            3.9097,
            4.0201,
            3.9941,
            4.0594,
            4.1027,
            4.1132,
            4.2095,
            4.2101,
            4.3175,
            4.3265,
            4.5384,
            4.4899,
            4.5006,
            4.4152,
            4.5284,
            4.6269,
            4.75,
            4.878,
            4.7066,
            4.8453,
            4.7628,
            4.777,
            4.9485,
            5.0602,
            5.045,
            5.091,
            5.0271,
            5.0788,
            5.0217,
            5.2638,
            5.274,
            5.194,
            5.1971,
            5.3229,
            5.2425,
            5.3301,
            5.2485,
            5.4813,
            5.5927,
            5.498,
            5.5041,
            5.5432,
            5.5357,
            5.5042,
            5.7155,
            5.702,
            5.6621,
            5.7967,
            5.7167,
            5.6568,
            5.7375,
            5.9325,
            5.9086,
            5.9376,
            5.8284,
            5.9673,
            5.9952,
            5.8625,
            5.8782,
            6.0465,
            6.3057,
            6.1324,
            6.2032,
            6.2904,
            6.2765,
            6.2498,
            6.3701,
            6.3089,
            6.7449,
            6.34,
            6.354,
            6.4679,
            6.5772,
            6.4485,
            6.5574,
            6.8418,
            6.6886,
            6.6239,
            6.7368,
            6.6185,
            6.8543,
            6.892,
            7.0326,
            7.0069,
            6.6599,
            6.8011,
            7.0827,
            7.139,
            7.5,
            7.1883,
            6.9127,
            7.1356,
            7.1215,
            7.2351,
            7.3498,
            7.4347,
            7.5464,
            7.448,
            7.1837,
            7.3303,
            7.5142,
            7.5192,
            7.7064,
            7.8739,
            7.2814,
            7.5829,
            7.7594,
            7.8419,
            7.5535,
            8.2792,
            8.483,
            8.0919,
            7.9371,
            7.837,
            8.0492,
            8.028,
            8.2471,
            8.5079,
            8.4255,
            8.0755,
            8.5434,
            8.5124,
            8.2981,
            8.5947,
            8.3134,
            8.2644,
            8.4611,
            8.4352,
            8.3261,
            8.5364,
            8.9447,
            8.856,
            8.8162,
            8.8452,
            8.5817,
            8.8299,
            8.8339,
            9.2863,
            8.994,
            8.9965,
            8.8839,
            8.5657,
            8.8382,
            8.5569,
            9.052,
            9.0822,
            9.4225,
            9.1579,
            9.3342,
            9.0837,
            9.2862,
            8.9517,
            8.9502,
            9.259,
            9.267,
            9.5415,
            9.3884,
            9.2167,
            9.5372,
            9.8062,
            9.5983,
            10.067,
            10.036,
            10.201,
            10.165,
            10.457,
            10.677,
            10.207,
            11.06,
            10.989,
            10.972,
            11.053,
            11.374,
            11.53,
            11.504,
            11.854,
            12.02,
            12.31,
            11.84,
            12.488,
            12.669,
            12.551,
            13.054,
            12.996,
            12.622,
            13.08,
            12.992,
            13.586,
            13.516,
            13.396,
            13.773,
            14.085,
            13.954,
            14.304,
            14.619,
            14.471,
            14.516,
            14.494,
            14.947,
            14.771,
            14.67,
            14.673,
            14.842,
            14.597,
            14.988,
            15.122,
            14.881,
            14.694,
            14.922,
            15.397,
            14.898,
            14.958,
            15.353,
            15.093,
            14.868,
            15.569,
            15.299,
            14.721,
            15.517,
            15.149,
            14.348,
            14.464,
            14.953,
            14.659,
            14.688,
            14.964,
            14.857,
            15.528,
            14.673,
            15.088,
            15.436,
            15.231,
            15.967,
            15.71,
            15.462,
            15.129,
            15.182,
            16.101,
            15.769,
            15.436,
            16.316,
            16.372,
            16.04,
            16.345,
            17.104,
            16.698,
            16.5,
            16.959,
            16.786,
            17.103,
            17.376,
            17.967,
            18.247,
            17.776,
            17.888,
            18.252,
            17.882,
            18.346,
            18.448,
            18.353,
            18.677,
            18.698,
            19.799,
            18.724,
            19.256,
            20.315,
            20.371,
            20.108,
            20.874,
            20.629,
            20.637,
            20.891,
            21.646,
            20.415,
            21.336,
            21.808,
            22.253,
            21.541,
            22.797,
            21.275,
            21.605,
            22.117,
            22.52,
            23.431,
            22.463,
            22.972,
            23.468,
            22.422,
            23.09,
            22.601,
            23.553,
            22.487,
            23.136,
            22.045,
            22.866,
            22.58,
            23.694,
            23.536,
            22.533,
            22.823,
            23.137,
            23.129,
            21.782,
            22.68,
            22.4,
            22.755,
            21.971,
            22.947,
            23.134,
            22.085,
            22.911,
            23.275,
            22.043,
            22.516,
            21.155,
            22.9,
            22.438,
            21.766,
            22.282,
            22.355,
            22.698,
            21.896,
            22.431,
            21.951,
            21.674,
            22.251,
            22.602,
            22.304,
            22.516,
            23.099,
            23.01,
            22.946,
            23.137,
            23.405,
            22.813,
            22.991,
            23.711,
            22.824,
            23.523,
            22.823,
            23.638,
            22.899,
            22.923,
            22.986,
            23.748,
            23.266,
            23.514,
            23.875,
            22.909,
            23.412,
            23.284,
            23.953,
            22.71,
            24.193,
            24.447,
            22.639,
            23.424,
            24.491,
            24.886,
            24.024,
            24.572,
            25.309,
            24.901,
            24.138,
            25.533,
            25.891,
            25.006,
            24.626,
            25.256,
            24.887,
            24.917,
            25.786,
            25.524,
            26.406,
            23.53,
            25.941,
            25.597,
            23.956,
            24.986,
            25.508,
            26.192,
            24.878,
            26.051,
            26.5,
            25.091,
            25.784,
            26.449,
            25.515,
            25.331,
            25.672,
            27.138,
            24.338,
            25.51,
            24.942,
            25.267,
            24.937,
            24.559,
            24.599,
            25.019,
            25.676,
            25.137,
            26.44,
            24.878,
            24.994,
            24.731,
            25.997,
            24.775,
            25.932,
            25.424,
            23.323,
            24.915,
            25.663,
            24.188,
            23.713,
            24.672,
            26.204,
            25.664,
            25.693,
            25.079,
            25.658,
            25.81,
            25.966,
            24.859,
            25.093,
            24.872,
            25.219,
            25.877,
            24.606,
            25.222,
            25.303,
            23.37,
            25.488,
            26.372,
            26.048,
            27.24,
            27.295,
            28.056,
            28.106,
            28.226,
            28.04,
            28.883,
            29.497,
            29.652,
            30.657,
            30.702,
            30.316,
            30.298,
            31.178,
            30.942,
            31.626,
            31.964,
            33.378,
            32.422,
            32.151,
            32.737,
            33.248,
            33.419,
            33.409,
            33.921,
            34.402,
            35.132,
            35.314,
            35.721,
            37.82,
            37.617,
            38.822,
            38.436,
            41.858,
            42.018,
            43.138,
            43.106,
            44.076,
            45.134,
            46.639,
            46.8,
            47.251,
            48.514,
            48.301,
            49.458,
            50.069,
            49.525,
            49.19,
            49.48,
            50.042,
            49.987,
            51.242,
            51.156,
            50.031,
            49.581,
            48.598,
            49.028,
            46.4,
            48.038,
            47.946,
            46.843,
            45.783,
            45.879,
            47.245,
            47.267,
            47.93,
            47.307,
            46.908,
            46.675,
            47.58,
            47.21,
            48.874,
            48.4,
            46.459,
            49.128,
            49.548,
            50.403,
            52.175,
            50.555,
            51.693,
            51.836,
            53.375,
            52.551,
            53.13,
            53.533,
            54.356,
            53.991,
            57.091,
            57.491,
            54.572,
            55.929,
            54.217,
            54.737,
            54.163,
            54.477,
            54.794,
            53.908,
            51.591,
            50.887,
            50.869,
            53.466,
            51.689,
            50.961,
            50.858,
            47.121,
            46.699,
            48.333,
            48.199,
            47.599,
            46.766,
            48.077,
            46.875,
            44.921,
            43.981,
            44.02,
            44.234,
            43.638,
            43.052,
            42.429,
            43.68,
            45.585,
            45.264,
            44.789,
            43.139,
            48.11,
            46.389,
            45.164,
            47.807,
            46.565,
            46.549,
            45.667,
            47.1,
            48.219,
            49.169,
            48.63,
            52.873,
            51.551,
            50.217,
            52.023,
            53.052,
            51.159,
            52.674,
            49.333,
            53.864,
            54.344,
            56.624,
            55.704,
            54.251,
            56.53,
            58.171,
            58.82,
            58.704,
            60.275,
            57.098,
            58.566,
            59.877,
            58.397,
            60.62,
            61.445,
            63.934,
            60.519,
            59.8,
            61.036,
            64.26,
            63.042,
            62.733,
            63.419,
            65.983,
            60.993,
            62.496,
            62.71,
            63.795,
            60.216,
            62.267,
            63.33,
            61.633,
            61.371,
            61.807,
            61.07,
            57.478,
            57.796,
            56.417,
            55.995,
            57.51,
            55.786,
            55.645,
            53.296,
            53.501,
            56.822,
            51.244,
            49.926,
            54.1,
            51.767,
            52.458,
            51.199,
            50.113,
            49.292,
            48.502,
            50.45,
            47.739,
            49.518,
            45.127,
            47.868,
            47.956,
            48.24,
            45.953,
            43.482,
            45.839,
            44.751,
            49.967,
            46.129,
            46.398,
            48.413,
            46.778,
            47.46,
            51.034,
            49.06,
            47.799,
            47.591,
            51.446,
            48.824,
            48.287,
            50.135,
            50.8,
            45.848,
            48.655,
            50.089,
            51.88,
            51.32,
            51.313,
            48.694,
            51.88,
            50.838,
            52.732,
            50.984,
            49.791,
            48.997,
            57.012,
            56.246,
            50.329,
            49.096,
            51.652,
            52.833,
            51.529,
            53.397,
            53.183,
            56.557,
            50.934,
            54.271,
            54.425,
            50.971,
            53.275,
            54.504,
            54.015,
            55.909,
            53.143,
            56.805,
            52.241,
            52.574,
            54.297,
            55.235,
            57.255,
            51.42,
            53.643,
            54.725,
            57.119,
            57.535,
            55.476,
            56.166,
            56.583,
            54.486,
            54.678,
            59.471,
            55.29,
            55.272,
            59.843,
            59.924,
            57.892,
            59.194,
            59.255,
            58.216,
            55.913,
            60.856,
            61.673,
            61.439,
            62.558,
            63.152,
            65.339,
            68.344,
            71.264,
            69.64,
            73.009,
            74.897,
            75.673,
            73.177,
            75.934,
            73.503,
            76.68,
            73.872,
            74.537,
            72.812,
            69.853,
            67.382,
            66.873,
            64.954,
            59.84,
            60.17,
            57.529,
            53.952,
            53.039,
            51.328,
            51.208,
            50.133,
            45.346,
            43.047,
            43.337,
            40.789,
            39.764,
            38.2,
            37.49,
            38.547,
            39.14,
            37.675,
            36.248,
            35.919,
            35.291,
            32.599,
            33.587,
            30.124,
            32.575,
            31.05,
            30.414,
            29.541,
            28.729,
            26.857,
            26.864,
            28.31,
            27.563,
            25.206,
            26.664,
            26.8,
            25.754,
            23.79,
            24.781,
            24.877,
            24.014,
            21.79,
            23.037,
            20.75,
            22.812,
            21.055,
            20.558,
            21.083,
            20.411,
            18.889,
            20.853,
            19.475,
            20.001,
            20.999,
            19.97,
            20.864,
            21.234,
            20.596,
            20.601,
            21.823,
            22.705,
            19.994,
            21.489,
            21.112,
            20.411,
            22.522,
            22.923,
            22.211,
            21.739,
            21.666,
            25.418,
            24.826,
            24.086,
            21.803,
            25.332,
            24.357,
            25.902,
            22.985,
            24.404,
            25.412,
            26.206,
            24.732,
            24.486,
            26.038,
            27.234,
            26.929,
            25.377,
            27.288,
            24.385,
            27.889,
            26.681,
            26.499,
            27.111,
            28.222,
            29.179,
            27.844,
            25.889,
            22.746,
            25.966,
            25.827,
            26.453,
            24.319,
            22.761,
            26.716,
            25.679,
            25.066,
            21.302,
            23.729,
            26.646,
            23.535,
            23.15,
            23.419,
            24.156,
            22.825,
            23.463,
            26.993,
            19.738,
            21.733,
            20.813,
            25.609,
            25.89,
            23.37,
            22.423,
            22.789,
            22.433,
            23.313,
            21.298,
            23.644,
            20.649,
            22.595,
            22.325,
            22.687,
            22.958,
            23.121,
            21.955,
            22.435,
            22.141,
            22.4,
            19.849,
            22.48,
            22.631,
            20.481,
            21.43,
            23.082,
            23.12,
            20.55,
            20.099,
            24.057,
            24.818,
            21.706,
            26.606,
            20.386,
            20.272,
            23.01,
            20.903,
            24.193,
            26.12,
            21.056,
            25.813,
            22.874,
            21.452,
            21.457,
            23.826,
            25.036,
            24.786,
            19.71,
            23.074,
            22.672,
            22.67,
            24.048,
            23.364,
            22.258,
            22.113,
            24.218,
            24.642,
            24.362,
            21.922,
            24.217,
            25.523,
            23.927,
            21.422,
            24.063,
            24.648,
            26.276,
            25.537,
            21.301,
            22.798,
            23.699,
            24.286,
            25.352,
            27.678,
            27.368,
            24.693,
            25.311,
            25.447,
            28.323,
            26.061,
            27.986,
            25.864,
            30.429,
            27.965,
            27.292,
            29.111,
            24.926,
            22.197,
            30.778,
            29.07,
            29.916,
            28.878,
            27.303,
            30.927,
            29.182,
            26.872,
            32.487,
            25.567,
            31.056,
            32.297,
            29.22,
            32.824,
            37.559,
            30.612,
            35.565,
            33.709,
            28.86,
            33.311,
            29.344,
            32.15,
            30.222,
            32.663,
            32.649,
            37.061,
            31.042,
            30.033,
            36.654,
            35.461,
            37.622,
            36.822,
            35.012,
            41.209,
            38.39,
            39.595,
            41.629,
            37.517,
            33.44,
            35.757,
            34.353,
            36.311,
            39.537,
            42.181,
            45.939,
            36.718,
            45.316,
            39.244,
            45.105,
            40.272,
            40.345,
            41.077,
            41.394,
            45.121,
            42.445,
            43.678,
            44.699,
            50.698,
            44.146,
            48.066,
            43.804,
            42.646,
            46.136,
            50.424,
            45.557,
            44.864,
            53.258,
            51.58,
            49.648,
            55.151,
            51.638,
            53.045,
            51.044,
            56.425,
            48.008,
            52.631,
            54.347,
            58.254,
            66.319,
            56.835,
            50.565,
            56.03,
            55.236,
            56.17,
            56.197,
            58.913,
            59.964,
            63.277,
            60.757,
            61.351,
            58.412,
            63.258,
            60.051,
            65.544,
            59.433,
            63.277,
            63.411,
            66.883,
            63.037,
            64.326,
            73.676,
            66.641,
            64.245,
            66.052,
            72.592,
            65.785,
            68.273,
            71.417,
            71.409,
            75.944,
            74.341,
            74.962,
            69.957,
            74.841,
            71.283,
            77.469,
            83.911,
            75.744,
            83.575,
            74.148,
            90.428,
            86.725,
            82.251,
            79.966,
            84.674,
            89.866,
            86.312,
            87.231,
            91.979,
            88.869,
            94.396,
            93.364,
            90.224,
            82.196,
            97.908,
            110.47,
            91.49,
            97.454,
            102.09,
            100.06,
            103.82,
            97.053,
            94.743,
            103.57,
            92.083,
            109.59,
            121.43,
            119.68,
            111.96,
            106.58,
            115.1,
            115.79,
            122.54,
            109.79,
            114.99,
            107.15,
            126.79,
            113.65,
            121.33,
            129.24,
            143.02,
            142.21,
            136.54,
            146.35,
            136.62,
            139.07,
            138.69,
            136.7,
            139.85,
            123.43,
            134.79,
            133.3,
            136.07,
            123.68,
            128.91,
            131.5,
            125.6,
            140.24,
            134.98,
            147.05,
            139.43,
            136.57,
            149.76,
            146.03,
            133.36,
            138.79,
            135.05,
            140.56,
            142.95,
            145.46,
            144.75,
            147.67,
            157.26,
            157.0,
            142.68,
            148.21,
            152.82,
            142.59,
            133.51,
            159.18,
            141.77,
            152.23,
            164.89,
            149.18,
            151.29,
            152.5,
            143.88,
            167.23,
            149.35,
            173.24,
            146.52,
            161.82,
            169.82,
            169.23,
            159.3,
            146.68,
            160.74,
            159.9,
            168.21,
            162.27,
            168.15,
            154.12,
            149.28,
            174.58,
            163.87,
            164.43,
            183.83,
            171.15,
            160.48,
            175.26,
            182.19,
            156.02,
            172.96,
            172.32,
            179.5,
            189.73,
            195.3,
            178.69,
            165.45,
            177.14,
            174.42,
            158.13,
            180.38,
            188.1,
            174.02,
            191.74,
            188.84,
            201.55,
            182.94,
            179.08,
            190.54,
            195.24,
            186.34,
            190.96,
            190.54,
            185.75,
            188.22,
            172.8,
            181.96,
            171.4,
            201.34,
            198.6,
            166.0,
            188.01,
            181.78,
            221.19,
            204.55,
            191.78,
            193.33,
            181.41,
            182.3,
            179.74,
            188.8,
            177.2,
            180.45,
            171.86,
            176.76,
            171.42,
            201.53,
            181.42,
            211.34,
            207.79,
            219.51,
            202.25,
            197.61,
            169.77,
            180.74,
            183.69,
            215.38,
            209.84,
            186.49,
            187.16,
            167.95,
            175.08,
            182.35,
            216.71,
            189.62,
            161.51,
            184.78,
            177.59,
            211.21,
            204.03,
            190.88,
            205.48,
            198.99,
            187.5,
            205.44,
            200.12,
            178.54,
            172.01,
            178.49,
            187.02,
            189.57,
            206.71,
            218.94,
            200.45,
            214.8,
            207.88,
            209.55,
            180.47,
            203.96,
            214.45,
            179.17,
            181.57,
            176.24,
            206.25,
            222.82,
            157.04,
            208.75,
            187.8,
            215.46,
            176.29,
            216.33,
            205.68,
            196.14,
            207.6,
            216.58,
            223.25,
            232.46,
            208.71,
            217.88,
            209.18,
            202.92,
            180.8,
            175.56,
            206.05,
            204.92,
            188.96,
            206.53,
            192.98,
            255.01,
            201.28,
            171.98,
            204.28,
            190.05,
            225.66,
            225.95,
            242.04,
            217.37,
            229.26,
            251.52,
            186.25,
            222.08,
            205.51,
            225.22,
            199.21,
            231.43,
            223.71,
            222.13,
            233.17,
            201.46,
            210.75,
            271.73,
            184.5,
            229.84,
            195.28,
            222.98,
            224.55,
            229.44,
            209.01,
            208.77,
            247.74,
            213.29,
            221.56,
            264.86,
            268.34,
            254.35,
            248.85,
            216.5,
            225.14,
            224.86,
            250.09,
            235.17,
            242.22,
            258.68,
            226.69,
            231.89,
            203.07,
            221.46,
            261.29,
            253.5,
            233.61,
            221.43,
            224.8,
            196.46,
            217.76,
            209.01,
            228.6,
            238.17,
            223.28,
            263.88,
            224.06,
            210.82,
            222.64,
            213.4,
            191.38,
            228.91,
            234.75,
            223.19,
            244.17,
            245.67,
            249.43,
            237.55,
            230.12,
            215.81,
            239.66,
            206.99,
            217.48,
            232.56,
            271.03,
            247.1,
            262.69,
            252.39,
            242.01,
            272.17,
            271.51,
            260.88,
            242.98,
            249.38,
            209.0,
            247.32,
            276.26,
            227.82,
            241.67,
            303.93,
            287.93,
            263.99,
            247.43,
            220.35,
            294.67,
            217.7,
            261.09,
            262.61,
            266.89,
            249.66,
            291.51,
            255.12,
            256.67,
            252.66,
            284.47,
            261.1,
            206.68,
            196.63,
            214.75,
            255.61,
            274.37,
            287.36,
            236.97,
            270.22,
            265.91,
            238.05,
            209.84,
            267.46,
            256.99,
            279.5,
            287.02,
            279.56,
            244.42,
            251.97,
            219.27,
            205.01,
            262.34,
            276.28,
            239.98,
            282.45,
            271.2,
            282.34,
            251.16
          ]
        ]
      }
    },
    "003": {
      "common": null,
      "data": {
        "heads": [
          "EN",
          "DATA",
          "ERR-S"
        ],
        "units": [
          "KEV",
          "B",
          "B"
        ],
        "data": [
          [
            56.778,
            50.591,
            45.363,
            40.906,
            37.074,
            33.757,
            30.866,
            27.214,
            23.234,
            20.068,
            17.507,
            15.408,
            13.664,
            12.201,
            10.961,
            9.4438,
            7.8483,
            6.6256,
            5.668,
            4.904,
            4.2847,
            3.7758,
            3.3524,
            2.9965,
            2.6944,
            2.4358,
            2.2127,
            2.0189,
            1.7751,
            1.5105,
            1.301,
            1.1322,
            0.99432,
            0.88015,
            0.78458,
            0.70378,
            0.63484,
            0.57556,
            0.52421,
            0.45981,
            0.39019,
            0.33527,
            0.29118,
            0.25526,
            0.22559,
            0.20082,
            0.17991,
            0.1621,
            0.14682,
            0.1336,
            0.12208,
            0.112,
            0.10311,
            0.09174,
            0.07918,
            0.06903,
            0.06072,
            0.05382,
            0.04803,
            0.04313,
            0.03895,
            0.03534,
            0.03221,
            0.02829,
            0.02403,
            0.02067,
            0.01797,
            0.01577,
            0.01394,
            0.01242,
            0.01059,
            0.00869,
            0.00726,
            0.00615,
            0.00493,
            0.00378,
            0.00299,
            0.00243,
            0.00201,
            0.00169,
            0.00144,
            0.00124,
            0.00108,
            0.000952,
            0.000844,
            0.000753,
            0.000676,
            0.00061,
            0.000554,
            0.000505,
            0.000462,
            0.000424,
            0.000376,
            0.000324,
            0.000281,
            0.000247,
            0.000218,
            0.000194,
            0.000166,
            0.000136,
            0.000114,
            8.94e-05,
            6.73e-05,
            5.25e-05,
            4.2e-05,
            3.44e-05
          ],
          [
            1.19,
            1.77,
            1.46,
            1.53,
            1.63,
            1.89,
            1.56,
            1.48,
            1.48,
            2.12,
            1.2,
            2.09,
            1.31,
            1.88,
            2.18,
            1.94,
            2.77,
            1.85,
            3.5,
            2.67,
            2.65,
            4.0,
            2.65,
            3.69,
            3.42,
            4.13,
            5.18,
            5.63,
            4.24,
            4.94,
            6.38,
            4.64,
            4.86,
            4.14,
            5.73,
            10.9,
            8.34,
            8.82,
            14.1,
            8.07,
            8.22,
            11.8,
            17.2,
            13.4,
            18.9,
            11.1,
            17.2,
            11.0,
            16.5,
            8.7,
            12.2,
            20.9,
            17.4,
            38.9,
            34.4,
            46.1,
            53.8,
            40.2,
            33.2,
            21.1,
            33.9,
            15.3,
            13.3,
            21.5,
            29.2,
            27.2,
            67.7,
            41.3,
            79.0,
            51.5,
            83.8,
            71.3,
            59.5,
            68.2,
            41.5,
            53.9,
            49.6,
            31.5,
            63.4,
            34.7,
            88.8,
            124.0,
            78.1,
            78.8,
            125.0,
            177.0,
            208.0,
            343.0,
            358.0,
            346.0,
            465.0,
            486.0,
            747.03,
            787.29,
            630.62,
            793.23,
            903.68,
            717.45,
            797.37,
            811.19,
            851.01,
            810.47,
            1246.7,
            1246.1,
            782.14,
            859.76
          ],
          [
            0.194,
            0.248,
            0.237,
            0.255,
            0.276,
            0.312,
            0.294,
            0.216,
            0.234,
            0.299,
            0.242,
            0.339,
            0.287,
            0.363,
            0.413,
            0.297,
            0.389,
            0.345,
            0.512,
            0.48,
            0.51,
            0.668,
            0.579,
            0.723,
            0.731,
            0.843,
            0.998,
            1.08,
            0.708,
            0.836,
            1.02,
            0.929,
            1.01,
            1.0,
            1.25,
            1.82,
            1.67,
            1.8,
            2.39,
            1.37,
            1.5,
            1.95,
            2.51,
            2.43,
            2.99,
            2.42,
            3.2,
            2.67,
            3.45,
            2.62,
            3.26,
            4.46,
            4.22,
            4.76,
            4.82,
            5.95,
            6.84,
            6.28,
            6.06,
            5.13,
            6.78,
            4.85,
            4.7,
            4.49,
            5.73,
            5.93,
            9.99,
            8.27,
            12.2,
            10.5,
            10.3,
            10.5,
            10.4,
            12.1,
            7.47,
            9.71,
            10.6,
            9.5,
            14.6,
            11.6,
            20.4,
            25.9,
            22.6,
            25.0,
            34.6,
            44.3,
            52.0,
            73.1,
            80.2,
            83.9,
            104.0,
            115.0,
            91.457,
            105.49,
            96.602,
            119.76,
            137.42,
            135.61,
            106.32,
            124.02,
            149.13,
            127.92,
            189.75,
            217.87,
            190.41,
            238.45
          ]
        ]
      }
    }
  },
  "experimental_conditions": {
    "001": {
      "0": {
        "detector": [
          {
            "x4_code": "(IOCH)",
            "free_txt": [
              " a compensated fission chamber (CFC)"
            ]
          }
        ],
        "facility": [
          {
            "x4_code": "(LINAC,1USALAS)",
            "free_txt": [
              " Los Alamos Neutron Science Center",
              " (LANSCE)"
            ]
          }
        ],
        "inc-source": [
          {
            "x4_code": "(SPALL)",
            "free_txt": [
              " A lead-slowing-down-spectrometer (LSDS),",
              " and pulses of 800 MeV protons from the Proton",
              " Storage Ring."
            ]
          }
        ],
        "method": [
          {
            "x4_code": "(SLODT)",
            "free_txt": []
          }
        ],
        "sample": [
          {
            "x4_code": null,
            "free_txt": [
              "Measured fission cross-sections are presented for",
              " 70 microg of 235U and 27 and 35 ng of 239Pu."
            ]
          }
        ]
      }
    },
    "002": {
      "0": {
        "err-analys": [
          {
            "x4_code": null,
            "free_txt": [
              "No information"
            ]
          }
        ],
        "status": [
          {
            "x4_code": "(TABLE)",
            "free_txt": [
              " Data received from main author"
            ]
          }
        ]
      }
    },
    "003": {
      "0": {
        "err-analys": [
          {
            "x4_code": "(ERR-S)",
            "free_txt": [
              " Statistical uncertainties"
            ]
          }
        ],
        "sample": [
          {
            "x4_code": null,
            "free_txt": [
              "27 ng of Pu-239"
            ]
          }
        ],
        "status": [
          {
            "x4_code": "(TABLE)",
            "free_txt": [
              " Data received from main author"
            ]
          }
        ]
      }
    }
  }
}