{
  "entry": "10323",
  "last_updated": "2006-07-20",
  "number_of_revisions": "3",
  "histories": [
    {
      "x4_code": "(19731204C)",
      "free_txt": []
    },
    {
      "x4_code": "(19830118A)",
      "free_txt": [
        " Converted to REACTION formalism"
      ]
    },
    {
      "x4_code": "(20020926A)",
      "free_txt": [
        " Updated to new date formats, lower case."
      ]
    }
  ],
  "bib_record": {
    "title": "Neutron-Induced Fission Cross Section of 252Cf",
    "authors": [
      {
        "name": "M.S.Moore"
      },
      {
        "name": "J.H.Mc Nally"
      },
      {
        "name": "R.D.Baybarz"
      }
    ],
    "institutes": [
      {
        "x4_code": "(1USALAS)",
        "free_txt": ""
      },
      {
        "x4_code": "(1USAORL)",
        "free_txt": ""
      }
    ],
    "references": [
      {
        "x4_code": "(J,PR/C,4,273,197107)",
        "free_txt": [],
        "publication_year": "1971",
        "pointer": "0"
      }
    ]
  },
  "reactions": {
    "002": {
      "0": {
        "x4_code": "(98-CF-252(N,F),,SIG)",
        "children": [
          {
            "code": [
              "98-CF-252",
              [
                "N,F"
              ],
              ",,SIG"
            ],
            "type": null,
            "target": "98-CF-252",
            "process": "N,F",
            "sf49": ",,SIG",
            "sf4": null,
            "sf5": null,
            "sf6": "SIG",
            "sf7": null,
            "sf8": null,
            "sf9": null
          }
        ],
        "type": null,
        "free_text": ""
      }
    },
    "003": {
      "1": {
        "x4_code": "(98-CF-252(N,0),,EN)",
        "children": [
          {
            "code": [
              "98-CF-252",
              [
                "N,0"
              ],
              ",,EN"
            ],
            "type": null,
            "target": "98-CF-252",
            "process": "N,0",
            "sf49": ",,EN",
            "sf4": null,
            "sf5": null,
            "sf6": "EN",
            "sf7": null,
            "sf8": null,
            "sf9": null
          }
        ],
        "type": null,
        "free_text": ""
      },
      "2": {
        "x4_code": "(98-CF-252(N,F),,ARE)",
        "children": [
          {
            "code": [
              "98-CF-252",
              [
                "N,F"
              ],
              ",,ARE"
            ],
            "type": null,
            "target": "98-CF-252",
            "process": "N,F",
            "sf49": ",,ARE",
            "sf4": null,
            "sf5": null,
            "sf6": "ARE",
            "sf7": null,
            "sf8": null,
            "sf9": null
          }
        ],
        "type": null,
        "free_text": ""
      }
    }
  },
  "data_tables": {
    "001": {
      "common": null
    },
    "002": {
      "common": null,
      "data": {
        "heads": [
          "EN",
          "DATA",
          "DATA-ERR"
        ],
        "units": [
          "EV",
          "B",
          "B"
        ],
        "data": [
          [
            24.01,
            24.071,
            24.133,
            24.193,
            24.256,
            24.326,
            24.446,
            24.482,
            24.519,
            24.57,
            24.633,
            24.701,
            24.761,
            24.833,
            24.957,
            25.02,
            25.092,
            25.346,
            25.613,
            25.885,
            26.161,
            26.442,
            26.727,
            27.017,
            27.312,
            27.611,
            27.765,
            27.841,
            27.918,
            27.995,
            28.225,
            28.394,
            28.552,
            28.86,
            29.034,
            29.198,
            29.516,
            29.853,
            30.195,
            30.37,
            30.457,
            30.556,
            30.898,
            31.168,
            31.272,
            31.625,
            31.825,
            32.012,
            32.379,
            32.585,
            32.766,
            32.863,
            32.962,
            33.06,
            33.126,
            33.168,
            33.259,
            33.56,
            33.866,
            33.968,
            34.072,
            34.175,
            34.279,
            34.399,
            34.595,
            34.701,
            34.823,
            35.022,
            35.13,
            35.185,
            35.229,
            35.272,
            35.348,
            35.474,
            35.623,
            35.668,
            35.712,
            35.789,
            35.845,
            35.89,
            35.935,
            35.98,
            36.025,
            36.07,
            36.115,
            36.16,
            36.205,
            36.25,
            36.296,
            36.341,
            36.387,
            36.433,
            36.478,
            36.524,
            36.57,
            36.616,
            36.662,
            36.709,
            36.755,
            36.801,
            36.848,
            36.894,
            36.941,
            36.988,
            37.034,
            37.081,
            37.128,
            37.175,
            37.222,
            37.282,
            37.4,
            37.538,
            37.76,
            38.004,
            38.266,
            38.514,
            38.998,
            39.271,
            39.528,
            39.767,
            40.032,
            40.564,
            41.107,
            41.661,
            42.227,
            42.804,
            43.116,
            43.413,
            43.687,
            43.838,
            43.989,
            44.141,
            44.607,
            44.956,
            45.071,
            45.255,
            45.525,
            45.873,
            46.527,
            47.195,
            47.877,
            48.574,
            48.951,
            49.279,
            49.46,
            49.672,
            50.038,
            50.377,
            50.563,
            50.783,
            51.024,
            51.129,
            51.32,
            51.481,
            51.558,
            51.704,
            52.298,
            53.094,
            53.525,
            53.935,
            54.313,
            54.522,
            54.768,
            55.594,
            56.467,
            57.36,
            58.275,
            59.212,
            59.731,
            59.917,
            60.159,
            60.311,
            60.408,
            60.506,
            60.648,
            60.801,
            60.899,
            61.186,
            61.597,
            61.698,
            61.799,
            61.9,
            62.001,
            62.149,
            62.405,
            62.662,
            62.822,
            62.925,
            63.029,
            63.181,
            63.343,
            63.448,
            63.553,
            63.707,
            63.972,
            64.288,
            64.62,
            64.778,
            65.05,
            65.273,
            65.382,
            65.493,
            65.603,
            65.714,
            65.877,
            66.047,
            66.159,
            66.271,
            66.383,
            66.496,
            66.609,
            66.722,
            66.836,
            66.949,
            67.063,
            67.178,
            67.292,
            67.407,
            67.523,
            67.638,
            67.754,
            67.87,
            67.987,
            68.103,
            68.22,
            68.338,
            68.455,
            68.573,
            68.691,
            68.81,
            68.929,
            69.048,
            69.168,
            69.287,
            69.407,
            69.528,
            69.649,
            69.77,
            69.891,
            70.013,
            70.135,
            70.257,
            70.38,
            70.503,
            70.626,
            70.749,
            70.873,
            70.998,
            71.183,
            71.372,
            71.498,
            71.624,
            71.75,
            71.877,
            72.003,
            72.131,
            72.258,
            72.386,
            72.514,
            72.643,
            72.772,
            72.901,
            73.095,
            73.291,
            73.422,
            73.553,
            73.75,
            74.08,
            74.413,
            74.748,
            75.017,
            75.153,
            75.425,
            75.698,
            75.835,
            76.111,
            76.458,
            76.666,
            76.805,
            76.946,
            77.086,
            77.227,
            77.368,
            77.51,
            77.652,
            77.795,
            77.938,
            78.081,
            78.225,
            78.369,
            78.513,
            78.658,
            78.803,
            78.949,
            79.095,
            79.242,
            79.389,
            79.536,
            79.684,
            79.832,
            79.98,
            80.129,
            80.432,
            80.729,
            80.881,
            81.187,
            81.569,
            81.796,
            81.95,
            82.415,
            83.124,
            83.947,
            84.801,
            85.453,
            85.618,
            85.954,
            86.37,
            86.615,
            86.783,
            86.951,
            87.211,
            87.636,
            87.972,
            88.144,
            88.316,
            88.489,
            88.662,
            88.931,
            89.368,
            89.895,
            90.702,
            91.153,
            91.695,
            92.616,
            94.443,
            95.854,
            96.44,
            97.433,
            98.228,
            98.431,
            98.852,
            100.45,
            101.56,
            102.64,
            104.77,
            106.17,
            106.29,
            107.1,
            109.38,
            110.87,
            111.12,
            111.36,
            111.75,
            112.37,
            114.3,
            116.89,
            119.57,
            122.33,
            125.2,
            128.17,
            129.77,
            130.98,
            131.44,
            131.95,
            132.75,
            133.54,
            134.15,
            134.48,
            134.8,
            135.13,
            135.45,
            135.61,
            135.78,
            136.11,
            136.44,
            136.93,
            137.1,
            137.27,
            137.44,
            137.77,
            137.94,
            138.11,
            138.28,
            138.45,
            138.62,
            139.52,
            141.07,
            141.95,
            144.71,
            148.41,
            152.24,
            156.23,
            160.37,
            162.62,
            164.58,
            165.17,
            166.06,
            166.79,
            167.4,
            167.83,
            168.05,
            168.28,
            169.06,
            170.21,
            171.61,
            172.95,
            173.73,
            174.92,
            176.13,
            176.79,
            177.28,
            177.77,
            178.27,
            178.77,
            179.26,
            179.76,
            181.36,
            182.81,
            183.33,
            183.84,
            184.96,
            185.89,
            186.15,
            186.46,
            186.99,
            187.53,
            188.02,
            188.29,
            188.56,
            188.82,
            189.09,
            189.36,
            189.64,
            189.91,
            190.18,
            190.45,
            190.73,
            191.0,
            191.32,
            191.88,
            193.07,
            194.06,
            194.34,
            194.67,
            195.9,
            197.33,
            198.11,
            198.69,
            200.55,
            202.17,
            202.47,
            202.83,
            203.43,
            204.74,
            205.87,
            206.48,
            207.04,
            207.35,
            207.66,
            207.97,
            208.35,
            208.91,
            209.23,
            209.54,
            209.86,
            210.17,
            210.49,
            210.81,
            211.13,
            211.51,
            212.15,
            212.8,
            213.44,
            214.03,
            214.35,
            214.75,
            215.33,
            215.66,
            215.99,
            216.32,
            216.73,
            217.32,
            217.65,
            217.99,
            218.32,
            218.66,
            218.99,
            219.41,
            220.01,
            220.35,
            220.76,
            221.45,
            222.13,
            222.82,
            224.33,
            226.09,
            227.31,
            227.75,
            230.05,
            232.1,
            233.34,
            235.2,
            237.49,
            240.93,
            241.97,
            242.75,
            243.44,
            243.84,
            244.33,
            245.13,
            245.83,
            246.23,
            246.64,
            247.04,
            247.54,
            248.36,
            249.17,
            249.99,
            250.82,
            253.49,
            256.7,
            257.56,
            259.45,
            261.64,
            262.8,
            263.69,
            264.58,
            266.1,
            267.29,
            268.2,
            269.12,
            270.67,
            271.89,
            272.83,
            273.77,
            275.36,
            277.76,
            280.18,
            282.64,
            285.12,
            286.44,
            287.45,
            288.47,
            289.49,
            290.52,
            292.79,
            294.68,
            295.74,
            296.8,
            297.87,
            298.94,
            300.77,
            302.19,
            303.13,
            303.68,
            304.23,
            304.78,
            305.5,
            306.45,
            307.0,
            307.73,
            308.86,
            309.99,
            311.92,
            313.43,
            314.58,
            315.75,
            316.92,
            317.52,
            317.91,
            318.41,
            318.7,
            319.1,
            319.69,
            320.47,
            321.67,
            322.87,
            324.08,
            325.3,
            326.22,
            326.53,
            326.94,
            327.75,
            328.99,
            330.04,
            330.51,
            330.65,
            330.86,
            331.29,
            331.92,
            332.75,
            334.01,
            335.09,
            335.72,
            336.36,
            337.01,
            337.53,
            337.75,
            337.88,
            338.02,
            338.15,
            338.29,
            338.5,
            338.95,
            339.6,
            340.46,
            342.69,
            344.41,
            345.74,
            346.87,
            347.54,
            348.43,
            349.79,
            352.81,
            357.04,
            363.38,
            365.26,
            366.72,
            368.18,
            369.66,
            370.55,
            370.69,
            370.84,
            370.99,
            371.14,
            371.47,
            371.84,
            372.63,
            373.71,
            374.09,
            374.46,
            374.84,
            375.39,
            376.15,
            378.24,
            380.2,
            380.36,
            380.56,
            380.95,
            381.51,
            382.29,
            382.89,
            383.28,
            383.85,
            384.45,
            384.84,
            385.23,
            385.48,
            385.64,
            385.8,
            386.02,
            386.27,
            386.43,
            386.58,
            386.74,
            386.9,
            387.06,
            387.22,
            387.37,
            387.53,
            387.69,
            387.85,
            389.99,
            392.6,
            393.21,
            393.62,
            394.22,
            395.04,
            396.14,
            397.78,
            399.15,
            399.78,
            400.01,
            400.18,
            400.35,
            400.51,
            400.68,
            401.03,
            401.65,
            402.28,
            402.51,
            402.68,
            402.85,
            403.33,
            403.96,
            404.19,
            404.36,
            404.53,
            404.81,
            405.04,
            405.21,
            405.38,
            405.55,
            405.72,
            406.08,
            406.72,
            407.58,
            408.43,
            409.29,
            410.15,
            411.32,
            412.76,
            413.63,
            414.82,
            416.04,
            416.44,
            416.61,
            416.92,
            417.37,
            417.67,
            417.85,
            418.03,
            418.26,
            418.93,
            419.82,
            420.72,
            421.94,
            423.75,
            424.85,
            425.03,
            425.21,
            425.46,
            425.92,
            426.3,
            426.49,
            426.67,
            426.85,
            427.04,
            427.29,
            427.99,
            429.25,
            430.77,
            433.37,
            436.74,
            438.31,
            439.26,
            439.96,
            440.44,
            441.18,
            442.5,
            443.62,
            443.81,
            444.0,
            444.31,
            444.59,
            444.78,
            445.28,
            445.56,
            445.76,
            445.95,
            446.26,
            447.02,
            448.37,
            452.77,
            456.0,
            457.02,
            458.41,
            460.46,
            462.52,
            469.34,
            478.91,
            481.72,
            483.93,
            485.74,
            486.85,
            488.39,
            489.88,
            490.23,
            490.68,
            490.91,
            491.36,
            491.59,
            495.7,
            502.77,
            513.39,
            516.5,
            518.48,
            519.32,
            519.93,
            520.55,
            527.08,
            536.11,
            537.4,
            538.7,
            540.0,
            541.31,
            542.62,
            543.29,
            543.55,
            543.82,
            544.17,
            545.26,
            547.1,
            549.26,
            550.6,
            551.5,
            552.17,
            552.84,
            553.52,
            553.96,
            554.23,
            554.5,
            554.88,
            555.59,
            555.86,
            556.24,
            556.68,
            556.95,
            557.22,
            557.5,
            558.04,
            558.32,
            558.59,
            558.97,
            559.66,
            560.35,
            560.79,
            561.06,
            561.34,
            561.62,
            561.89,
            562.17,
            562.45,
            562.72,
            563.12,
            564.29,
            566.23,
            569.05,
            571.88,
            574.17,
            575.12,
            575.83,
            577.62,
            580.51,
            583.43,
            585.79,
            587.27,
            589.34,
            591.22,
            591.96,
            593.24,
            595.34,
            597.77,
            599.29,
            600.82,
            601.77,
            602.08,
            602.59,
            603.9,
            604.85,
            605.16,
            605.47,
            605.78,
            606.09,
            606.4,
            606.71,
            607.02,
            607.33,
            608.56,
            610.75,
            617.8,
            623.51,
            625.52,
            626.08,
            626.41,
            626.73,
            627.74,
            634.09,
            640.03,
            642.1,
            642.66,
            643.0,
            643.34,
            643.68,
            644.02,
            644.65,
            645.5,
            646.35,
            647.84,
            649.55,
            650.65,
            651.51,
            653.72,
            655.71,
            656.06,
            656.73,
            657.6,
            658.48,
            660.73,
            668.67,
            673.49,
            673.86,
            674.22,
            674.58,
            674.95,
            676.17,
            678.01,
            679.85,
            681.0,
            681.92,
            687.04,
            693.72,
            696.75,
            698.67,
            700.59,
            702.52,
            704.47,
            705.67,
            706.21,
            706.6,
            706.99,
            707.62,
            708.16,
            708.55,
            708.95,
            709.58,
            710.57,
            713.13,
            715.51,
            716.51,
            717.51,
            718.51,
            720.28,
            721.66,
            722.53,
            723.54,
            724.08,
            724.48,
            724.89,
            725.29,
            725.7,
            726.11,
            726.51,
            726.92,
            727.32,
            727.73,
            728.14,
            728.55,
            728.96,
            730.44,
            732.5,
            734.57,
            737.51,
            741.7,
            745.92,
            750.18,
            752.82,
            753.25,
            753.8,
            754.54,
            755.72,
            758.8,
            763.17,
            766.64,
            767.98,
            769.09,
            769.83,
            770.27,
            770.72,
            771.16,
            771.61,
            773.31,
            776.5,
            780.07,
            781.43,
            782.57,
            785.59,
            790.19,
            794.83,
            802.97,
            809.01,
            811.81,
            812.8,
            813.28,
            813.76,
            815.2,
            818.67,
            822.52,
            824.97,
            827.45,
            828.91,
            830.15,
            831.4,
            832.89,
            833.39,
            833.89,
            834.39,
            835.15,
            837.44,
            838.93,
            840.19,
            840.94,
            841.44,
            841.95,
            842.73,
            845.05,
            848.72,
            852.77,
            854.29,
            855.59,
            859.1,
            863.23,
            864.77,
            866.1,
            869.68,
            873.88,
            875.38,
            875.92,
            876.8,
            877.54,
            878.08,
            878.62,
            879.5,
            881.99,
            885.91,
            890.23,
            891.83,
            893.22,
            909.95,
            930.2,
            931.9,
            933.38,
            937.44,
            943.44,
            949.5,
            952.96,
            954.49,
            957.34,
            959.11,
            960.65,
            963.54,
            968.03,
            974.33,
            979.28,
            982.48,
            987.11,
            993.59,
            1000.1,
            1004.3,
            1007.6,
            1013.4,
            1020.2,
            1032.1,
            1040.8,
            1045.1,
            1048.6,
            1054.9,
            1067.5,
            1076.7,
            1081.1,
            1084.8,
            1091.5,
            1096.0,
            1099.8,
            1106.7,
            1114.4,
            1122.2,
            1130.0,
            1143.9,
            1154.8,
            1158.9,
            1163.0,
            1170.6,
            1179.0,
            1187.5,
            1196.0,
            1201.0,
            1205.3,
            1209.7,
            1214.1,
            1222.3,
            1231.2,
            1240.3,
            1251.6,
            1268.0,
            1273.3,
            1278.0,
            1282.8,
            1287.6,
            1296.6,
            1306.4,
            1316.3,
            1321.8,
            1326.8,
            1336.4,
            1342.0,
            1347.2,
            1352.3,
            1357.5,
            1367.4,
            1378.0,
            1388.7,
            1402.2,
            1421.6,
            1432.8,
            1438.9,
            1444.6,
            1455.7,
            1467.3,
            1479.0,
            1485.4,
            1491.3,
            1503.0,
            1509.4,
            1515.6,
            1521.7,
            1527.9,
            1534.1,
            1540.4,
            1546.7,
            1553.0,
            1565.5,
            1581.7,
            1604.9,
            1618.4,
            1626.8,
            1633.6,
            1640.5,
            1647.4,
            1654.4,
            1661.4,
            1674.0,
            1688.3,
            1697.1,
            1704.4,
            1711.8,
            1719.2,
            1732.5,
            1747.6,
            1756.8,
            1764.5,
            1778.4,
            1794.1,
            1810.0,
            1819.6,
            1827.7,
            1835.9,
            1844.1,
            1859.1,
            1869.0,
            1877.4,
            1892.9,
            1910.1,
            1920.4,
            1929.2,
            1945.4,
            1967.9,
            2014.1,
            2039.4,
            2049.0,
            2058.6,
            2076.6,
            2111.5,
            2157.7,
            2169.7,
            2180.2,
            2216.3,
            2271.6,
            2342.5,
            2465.1,
            2597.6,
            2672.7,
            2701.7,
            2717.8,
            2732.6,
            2761.1,
            2799.4,
            2854.0,
            2886.0,
            2918.5,
            2960.2,
            3019.5,
            3054.4,
            3089.8,
            3135.2,
            3182.3,
            3201.0,
            3237.9,
            3276.5,
            3315.9,
            3356.0,
            3428.3,
            3503.3,
            3524.9,
            3567.9,
            3591.1,
            3647.1,
            3752.1,
            3777.0,
            3801.2,
            3887.6,
            4016.9,
            4185.7,
            4399.3,
            4430.2,
            4476.5,
            4523.7,
            4604.2,
            4692.8,
            4726.4,
            4787.7,
            4857.4,
            4947.4,
            5179.4,
            5590.5,
            6052.5,
            6508.1,
            6759.5,
            6827.5,
            6886.5,
            7091.0,
            7322.1,
            7387.7,
            7454.2,
            7842.8,
            8619.5,
            9256.2,
            9444.3,
            9638.3,
            9751.6,
            9852.5,
            10045.0,
            10257.0,
            10477.0,
            10605.0,
            10719.0,
            10836.0,
            10954.0,
            11074.0,
            11197.0,
            11321.0,
            11447.0,
            11576.0,
            11706.0,
            11839.0,
            11974.0,
            12112.0,
            12251.0,
            12394.0,
            12538.0,
            12686.0,
            12836.0,
            13124.0,
            13443.0,
            13773.0,
            13964.0,
            14137.0,
            14471.0,
            14841.0,
            15224.0,
            15735.0,
            16468.0,
            16917.0,
            17175.0,
            17412.0,
            17872.0,
            18380.0,
            18671.0,
            18939.0,
            19462.0,
            20040.0,
            20371.0,
            20677.0,
            20990.0,
            21310.0,
            21637.0,
            21972.0,
            22315.0,
            22665.0,
            23025.0,
            23392.0,
            24115.0,
            24914.0,
            25753.0,
            26635.0,
            27139.0,
            27610.0,
            28094.0,
            28590.0,
            29100.0,
            29623.0,
            30161.0,
            30713.0,
            31808.0,
            32464.0,
            33082.0,
            34308.0,
            35670.0,
            37115.0,
            37940.0,
            38721.0,
            40281.0,
            41213.0,
            42097.0,
            43870.0,
            45847.0,
            47961.0,
            49170.0,
            50324.0,
            51519.0,
            52758.0,
            54041.0,
            55372.0,
            56753.0,
            58187.0,
            61093.0,
            64362.0,
            66237.0,
            68047.0,
            71740.0,
            75914.0,
            78313.0,
            80644.0,
            83081.0,
            85630.0,
            88297.0,
            91092.0,
            94021.0,
            97094.0,
            100320.0,
            103710.0,
            107270.0,
            111030.0,
            114980.0,
            119140.0,
            123540.0,
            128180.0,
            133100.0,
            138300.0,
            143810.0,
            149650.0,
            155860.0,
            162470.0,
            169500.0,
            177000.0,
            185020.0,
            193580.0,
            202760.0,
            212600.0,
            223180.0,
            234570.0,
            246850.0,
            260130.0,
            274500.0,
            290100.0,
            321740.0,
            333440.0,
            341600.0,
            354420.0,
            363370.0,
            377440.0,
            387280.0,
            402780.0,
            413630.0,
            430750.0,
            442760.0,
            461750.0,
            475090.0,
            496210.0,
            511090.0,
            534690.0,
            551340.0,
            577820.0,
            596540.0,
            626380.0,
            647540.0,
            681340.0,
            705370.0,
            743860.0,
            771310.0,
            815400.0,
            846940.0,
            897790.0,
            934270.0,
            993310.0,
            1035800.0,
            1104900.0,
            1154900.0,
            1236500.0,
            1295800.0,
            1393000.0,
            1464100.0,
            1581300.0,
            1667400.0,
            1810400.0,
            1916300.0,
            2093300.0,
            2225300.0,
            2448000.0,
            2615600.0,
            2901200.0,
            3118400.0,
            3493000.0,
            3781500.0,
            4286200.0,
            4680900.0
          ],
          [
            12.737,
            8.7511,
            2.1264,
            -1.0684,
            7.8956,
            13.649,
            21.074,
            37.647,
            61.543,
            67.54,
            47.842,
            32.971,
            24.579,
            16.804,
            13.492,
            7.4334,
            2.7144,
            7.335,
            6.3209,
            4.8692,
            2.0118,
            0.58589,
            2.8049,
            2.6093,
            3.3795,
            4.3792,
            8.4967,
            11.677,
            10.299,
            6.315,
            4.3127,
            4.1298,
            8.3065,
            5.3081,
            5.3754,
            3.5353,
            3.6736,
            3.0586,
            5.5501,
            6.4451,
            3.0065,
            3.2866,
            2.9079,
            4.9383,
            5.7446,
            3.6037,
            5.6547,
            4.2375,
            4.4418,
            2.6012,
            2.3944,
            4.3457,
            4.5336,
            6.5853,
            7.283,
            5.2509,
            0.80342,
            3.8569,
            3.6638,
            4.9116,
            6.4321,
            5.4168,
            3.5721,
            5.4418,
            5.7672,
            4.0289,
            6.4592,
            5.9833,
            10.462,
            11.487,
            12.289,
            14.97,
            13.273,
            11.931,
            15.728,
            21.66,
            26.776,
            31.85,
            30.735,
            46.314,
            73.99,
            114.11,
            171.27,
            242.12,
            368.98,
            578.01,
            862.8,
            1243.4,
            1597.2,
            1765.7,
            1744.2,
            1526.8,
            1111.2,
            679.47,
            404.42,
            243.13,
            129.35,
            68.377,
            41.202,
            24.566,
            24.806,
            23.646,
            12.026,
            10.969,
            9.3485,
            6.9527,
            5.296,
            3.9619,
            3.0677,
            4.0026,
            5.8895,
            4.6308,
            3.7188,
            4.782,
            4.4151,
            2.6165,
            2.7127,
            1.9212,
            1.6169,
            0.77184,
            2.1429,
            2.7414,
            1.8806,
            2.2349,
            2.2377,
            2.133,
            1.9774,
            0.73272,
            2.1002,
            0.78639,
            1.1228,
            1.9039,
            1.8086,
            2.7664,
            1.5419,
            1.377,
            1.6099,
            2.6394,
            2.3008,
            1.7066,
            1.6277,
            1.4196,
            1.6063,
            1.2955,
            2.2573,
            1.5094,
            0.75323,
            0.79386,
            1.7605,
            1.6874,
            0.94169,
            2.106,
            1.1085,
            4.9639,
            3.6528,
            1.6974,
            1.3817,
            1.9158,
            1.8678,
            1.3038,
            1.4398,
            2.0177,
            1.3346,
            1.4639,
            2.0428,
            1.9428,
            1.7708,
            1.1582,
            1.1521,
            2.556,
            2.2433,
            4.1393,
            3.2822,
            1.8891,
            2.5449,
            3.3498,
            2.1667,
            1.5225,
            1.7198,
            3.396,
            4.4677,
            2.3581,
            1.5055,
            2.6422,
            2.9668,
            3.9358,
            3.5512,
            1.4473,
            3.1865,
            4.2189,
            5.5999,
            4.6008,
            3.3241,
            3.7079,
            5.6162,
            4.5232,
            5.3007,
            6.1574,
            6.5658,
            13.232,
            11.299,
            9.4475,
            9.7773,
            12.531,
            16.935,
            21.474,
            22.505,
            24.131,
            22.159,
            29.252,
            41.095,
            43.253,
            54.922,
            68.954,
            90.892,
            117.61,
            160.48,
            222.46,
            305.14,
            437.91,
            634.51,
            900.14,
            1212.9,
            1569.7,
            2265.0,
            2746.6,
            2590.3,
            1834.2,
            1037.2,
            569.21,
            284.04,
            162.48,
            106.51,
            78.79,
            62.229,
            48.677,
            34.867,
            29.486,
            22.144,
            19.152,
            19.28,
            14.898,
            10.768,
            10.351,
            7.9859,
            8.5603,
            6.5985,
            6.1401,
            8.2472,
            8.3795,
            5.3032,
            4.7587,
            4.8818,
            6.0731,
            5.6356,
            3.9913,
            4.3676,
            4.6054,
            2.314,
            2.0818,
            3.8651,
            2.8551,
            1.8977,
            2.8821,
            1.8309,
            2.6736,
            3.628,
            1.9449,
            2.1522,
            1.4357,
            1.4627,
            0.59945,
            1.2867,
            4.5154,
            2.0608,
            1.3578,
            -0.75514,
            1.9378,
            1.9482,
            2.6961,
            4.2637,
            3.2714,
            1.6053,
            3.5606,
            4.7917,
            4.0476,
            5.9575,
            12.05,
            18.841,
            21.403,
            29.51,
            39.502,
            55.933,
            106.57,
            132.82,
            120.74,
            61.974,
            23.696,
            9.7594,
            5.2656,
            3.3456,
            1.8256,
            1.62,
            1.37,
            0.79333,
            0.43259,
            0.34186,
            0.23869,
            1.1214,
            0.46568,
            0.59761,
            1.2333,
            1.3808,
            2.1815,
            1.3469,
            0.87956,
            0.65053,
            1.1567,
            1.8364,
            1.3405,
            1.7374,
            2.7975,
            5.366,
            7.8959,
            7.6596,
            4.5002,
            1.4712,
            0.56054,
            1.0443,
            0.8076,
            0.45794,
            1.047,
            0.49806,
            0.84386,
            0.42465,
            0.85909,
            0.69554,
            0.40656,
            1.2996,
            -0.50751,
            -0.26208,
            0.2813,
            1.2277,
            0.65234,
            0.26892,
            0.78909,
            0.7499,
            0.3871,
            0.4567,
            1.1735,
            0.54928,
            0.60767,
            1.0633,
            0.30663,
            0.7261,
            1.1353,
            0.6331,
            0.574,
            0.66344,
            0.51702,
            0.65991,
            0.21237,
            1.853,
            0.77277,
            0.79592,
            1.3127,
            0.7382,
            1.3579,
            1.8154,
            1.3138,
            1.007,
            1.9623,
            3.2954,
            4.0899,
            4.5956,
            4.4627,
            7.2178,
            9.5691,
            9.5184,
            14.228,
            18.079,
            18.18,
            13.392,
            8.2099,
            3.7143,
            1.2833,
            1.016,
            1.8435,
            1.4895,
            1.3202,
            1.3894,
            1.0927,
            0.7932,
            0.85382,
            0.68427,
            2.791,
            0.92302,
            2.1086,
            1.4878,
            -0.41987,
            1.5277,
            2.6204,
            1.1019,
            1.1125,
            1.4593,
            2.1245,
            1.8594,
            0.75278,
            0.54073,
            0.39576,
            0.36596,
            0.70224,
            0.39827,
            0.72356,
            0.97142,
            0.70735,
            0.53796,
            0.72617,
            1.4293,
            0.44136,
            0.6343,
            0.78193,
            1.6358,
            2.1115,
            1.6903,
            1.6869,
            2.3646,
            4.4209,
            5.9773,
            7.1396,
            6.6254,
            5.4675,
            6.5952,
            9.1543,
            8.2778,
            5.1283,
            2.1619,
            0.86187,
            0.85619,
            0.33628,
            0.3721,
            0.37316,
            0.7486,
            1.1677,
            0.29153,
            0.58738,
            1.0882,
            0.70131,
            0.9837,
            1.0262,
            2.1399,
            1.0491,
            0.12404,
            1.0214,
            0.46179,
            0.66036,
            2.6714,
            1.4856,
            1.3891,
            2.1954,
            3.554,
            3.5114,
            1.3,
            2.2301,
            4.349,
            3.5612,
            5.6947,
            5.3007,
            7.5025,
            13.116,
            11.894,
            22.455,
            26.129,
            36.65,
            48.145,
            43.804,
            44.342,
            62.894,
            80.862,
            113.92,
            111.96,
            151.28,
            187.64,
            126.21,
            32.444,
            5.7775,
            3.9945,
            1.5694,
            1.6198,
            3.1801,
            0.70213,
            0.60149,
            1.5921,
            0.49764,
            1.248,
            -0.0030661,
            1.3047,
            1.6274,
            0.48044,
            1.0846,
            0.59879,
            0.43925,
            1.0433,
            1.0517,
            -0.32906,
            2.3681,
            2.4058,
            4.9775,
            6.2469,
            6.2264,
            10.289,
            19.237,
            9.538,
            5.6589,
            0.39773,
            0.54458,
            1.8559,
            1.4744,
            0.80879,
            0.52503,
            1.2847,
            -0.015016,
            0.24464,
            0.59296,
            1.6882,
            0.81716,
            0.93059,
            1.0137,
            1.4339,
            0.17444,
            0.96242,
            1.5154,
            2.1574,
            1.2091,
            1.4804,
            0.38787,
            0.45962,
            0.11584,
            0.96878,
            1.6901,
            3.3034,
            2.0296,
            0.75637,
            0.58913,
            2.1615,
            1.4107,
            2.264,
            0.63807,
            1.2178,
            0.46523,
            0.82091,
            0.82131,
            0.80218,
            3.0748,
            1.5012,
            0.63001,
            1.7666,
            5.1228,
            3.5728,
            25.039,
            5.0509,
            0.15222,
            -0.7411,
            -0.31064,
            0.12346,
            0.98495,
            0.013778,
            1.0482,
            2.1988,
            1.2049,
            -0.15078,
            1.8499,
            2.4337,
            1.2311,
            0.66965,
            -0.5119,
            0.99812,
            0.52502,
            0.64451,
            5.1943,
            1.4682,
            1.1631,
            2.0237,
            1.7116,
            1.1661,
            0.46925,
            4.8527,
            4.6053,
            1.9871,
            0.33348,
            1.7955,
            0.2894,
            1.8773,
            -0.72857,
            0.19902,
            2.0769,
            1.6684,
            8.9321,
            15.876,
            16.699,
            13.021,
            10.96,
            6.8605,
            2.9691,
            -1.6446,
            -1.1732,
            0.070777,
            -0.94763,
            1.6245,
            1.8763,
            -1.1257,
            1.5947,
            1.9684,
            -0.37805,
            -0.39479,
            0.71765,
            1.3219,
            -0.66543,
            -1.3098,
            -0.66698,
            -0.71398,
            -0.042151,
            9.8638,
            24.935,
            6.3431,
            -0.6422,
            8.5494,
            1.0373,
            2.728,
            9.17,
            4.3951,
            -4.543,
            3.794,
            1.3002,
            0.11407,
            7.6273,
            10.495,
            10.899,
            1.1516,
            4.5725,
            0.73546,
            2.3193,
            7.4616,
            5.7242,
            6.4649,
            1.8758,
            -1.1615,
            1.0325,
            7.3785,
            13.067,
            6.4629,
            4.3488,
            6.0486,
            17.585,
            31.073,
            49.114,
            60.846,
            71.499,
            108.63,
            88.861,
            54.321,
            32.361,
            1.0988,
            3.8704,
            1.6961,
            12.936,
            3.5515,
            -1.5154,
            0.79316,
            2.6039,
            3.6323,
            5.1188,
            5.5888,
            2.7643,
            7.8208,
            9.169,
            3.5355,
            1.8169,
            1.1341,
            4.2277,
            4.194,
            4.2472,
            8.0816,
            9.5738,
            20.034,
            21.287,
            40.929,
            69.757,
            74.938,
            64.357,
            65.02,
            37.398,
            22.126,
            12.274,
            3.954,
            1.4295,
            1.5988,
            -0.33233,
            0.39133,
            2.795,
            0.67787,
            3.4596,
            1.7074,
            0.96511,
            1.6315,
            -0.44254,
            15.141,
            22.352,
            5.2433,
            -0.22591,
            8.6946,
            2.6207,
            2.4627,
            1.7886,
            0.44962,
            2.0911,
            0.26644,
            0.43934,
            0.18766,
            2.6977,
            12.314,
            16.666,
            25.156,
            34.275,
            50.509,
            65.766,
            36.163,
            20.343,
            4.3164,
            -0.2151,
            0.4874,
            3.1477,
            0.48593,
            2.1307,
            1.4581,
            3.4565,
            7.4459,
            2.953,
            4.3016,
            2.6687,
            6.9916,
            15.584,
            5.5957,
            6.1708,
            14.836,
            22.225,
            44.635,
            30.156,
            21.48,
            9.7912,
            1.5107,
            1.0767,
            -1.6626,
            0.67108,
            2.0809,
            0.3292,
            -2.7356,
            1.2716,
            -0.27775,
            -0.038105,
            0.35088,
            1.3025,
            -0.76991,
            0.041595,
            3.4628,
            -0.51695,
            4.0653,
            13.726,
            41.003,
            28.365,
            14.45,
            6.7542,
            0.062856,
            0.39039,
            -0.21145,
            0.61286,
            1.9142,
            1.4224,
            11.096,
            6.3485,
            0.36464,
            1.7906,
            -0.051512,
            -1.2609,
            2.6449,
            3.7839,
            0.78011,
            -0.13469,
            6.4556,
            15.166,
            6.2846,
            1.8121,
            2.2485,
            -0.19715,
            4.1146,
            1.5181,
            5.984,
            6.1005,
            7.9587,
            11.752,
            18.352,
            23.337,
            29.371,
            36.967,
            53.25,
            72.194,
            86.939,
            102.47,
            126.08,
            77.22,
            2.6394,
            3.6305,
            7.2752,
            6.2457,
            4.0157,
            5.5322,
            9.2653,
            19.167,
            27.831,
            42.426,
            61.818,
            37.179,
            26.694,
            10.916,
            2.0802,
            0.91192,
            0.67944,
            -0.59053,
            -0.17436,
            0.29902,
            3.5296,
            0.54636,
            1.5268,
            -0.55557,
            1.0657,
            0.94534,
            3.3558,
            0.82094,
            4.7997,
            0.08266,
            1.591,
            1.8296,
            0.19716,
            2.992,
            1.2467,
            0.49081,
            8.9382,
            1.305,
            2.3125,
            14.899,
            24.387,
            30.748,
            51.712,
            61.77,
            67.4,
            46.321,
            22.445,
            13.434,
            0.79483,
            0.38062,
            1.0299,
            1.141,
            1.7581,
            9.669,
            13.062,
            5.4772,
            1.5708,
            1.0115,
            0.80044,
            5.8159,
            0.83919,
            0.92118,
            9.1275,
            10.66,
            4.4567,
            2.7332,
            2.5019,
            0.77773,
            0.58122,
            1.1336,
            5.2922,
            -0.19845,
            0.50103,
            4.0155,
            7.5438,
            1.5937,
            -1.2182,
            2.3253,
            1.1163,
            1.8608,
            6.6099,
            19.79,
            27.13,
            16.021,
            7.4142,
            1.2128,
            1.0701,
            2.9354,
            3.2713,
            1.4564,
            0.75813,
            1.7497,
            2.1656,
            -0.035494,
            1.3941,
            4.7989,
            5.5987,
            11.623,
            18.201,
            6.0561,
            0.83962,
            3.0655,
            3.7139,
            8.4705,
            2.9773,
            3.494,
            8.0604,
            5.336,
            13.452,
            1.52,
            7.3089,
            2.6205,
            2.4687,
            11.858,
            5.183,
            15.537,
            24.806,
            28.234,
            43.757,
            74.933,
            136.59,
            177.31,
            145.77,
            106.02,
            63.381,
            27.25,
            24.597,
            13.887,
            2.2233,
            3.7484,
            3.3489,
            -0.53873,
            0.56338,
            0.27921,
            -0.18738,
            1.6588,
            7.3087,
            10.085,
            15.703,
            14.119,
            3.5725,
            1.2167,
            0.43379,
            0.90876,
            0.57543,
            4.0721,
            1.3781,
            16.596,
            23.062,
            24.166,
            9.4056,
            0.49672,
            0.34518,
            1.7441,
            3.6047,
            1.2264,
            0.50127,
            1.4828,
            0.88252,
            0.55098,
            0.37358,
            -0.61603,
            2.6525,
            8.3538,
            5.1639,
            1.0182,
            0.83608,
            2.2728,
            0.52975,
            1.5722,
            5.8612,
            3.9227,
            14.671,
            84.267,
            67.365,
            32.708,
            4.7649,
            2.1091,
            0.45175,
            0.003883,
            5.7153,
            9.9905,
            4.6095,
            1.6355,
            1.8167,
            1.3684,
            -0.37848,
            2.0967,
            1.0908,
            3.6573,
            0.6187,
            -1.2418,
            -1.8363,
            3.7138,
            -0.061854,
            -0.5872,
            -0.090691,
            5.7256,
            10.985,
            14.363,
            6.6482,
            2.8845,
            2.5937,
            -1.2319,
            -1.2331,
            2.3108,
            4.1531,
            -1.7144,
            -0.33094,
            2.9962,
            6.306,
            0.84971,
            0.65294,
            0.12338,
            1.0867,
            3.7618,
            1.4549,
            0.5806,
            4.8191,
            0.66101,
            0.75956,
            0.59055,
            0.43346,
            0.32429,
            3.1638,
            0.34673,
            0.9449,
            1.4089,
            5.2652,
            7.8868,
            1.0804,
            1.629,
            0.80634,
            0.66956,
            2.037,
            -1.6227,
            0.95627,
            1.2269,
            2.0182,
            3.4792,
            1.9646,
            1.8973,
            1.7463,
            0.30635,
            0.65377,
            1.0385,
            0.83034,
            1.7259,
            1.6058,
            4.7012,
            1.5814,
            0.25414,
            0.34165,
            0.79038,
            1.7661,
            1.408,
            2.3992,
            4.5121,
            8.2457,
            1.7985,
            0.65552,
            0.83497,
            1.3119,
            1.3566,
            2.1296,
            1.6044,
            2.0211,
            10.069,
            4.2435,
            1.441,
            1.658,
            1.9734,
            0.89541,
            3.3868,
            1.769,
            1.2508,
            4.0565,
            1.7501,
            0.17796,
            2.3097,
            0.43207,
            0.74605,
            1.2306,
            2.5945,
            4.4367,
            1.7064,
            1.126,
            1.1055,
            2.0211,
            1.6286,
            1.9163,
            6.2943,
            2.0606,
            2.0057,
            9.3509,
            24.971,
            3.5738,
            1.8258,
            1.0257,
            2.435,
            9.082,
            2.1197,
            1.6717,
            1.7441,
            1.0849,
            1.7803,
            4.1403,
            2.5967,
            1.8612,
            4.314,
            2.304,
            4.6678,
            4.4507,
            3.1271,
            1.9067,
            1.5356,
            0.97039,
            0.12348,
            1.1986,
            1.2,
            0.52052,
            0.78019,
            0.53129,
            2.0927,
            3.8912,
            2.6465,
            1.8954,
            1.0024,
            1.744,
            2.8672,
            2.1719,
            0.82211,
            1.371,
            2.5763,
            1.7522,
            0.99345,
            1.2639,
            1.3067,
            3.0492,
            1.1887,
            0.58855,
            0.9837,
            0.94383,
            0.94846,
            2.4001,
            1.1864,
            0.66543,
            1.6176,
            0.80253,
            0.85831,
            1.3313,
            2.0892,
            2.8324,
            5.0027,
            1.8721,
            1.0868,
            0.76296,
            1.471,
            2.3151,
            0.75879,
            0.75404,
            0.95151,
            0.75355,
            1.6862,
            1.2623,
            0.71696,
            1.8561,
            0.79268,
            0.69306,
            1.8573,
            1.1229,
            1.0346,
            0.98693,
            2.6238,
            1.8715,
            2.0637,
            1.1871,
            1.0047,
            1.6749,
            2.8815,
            1.2111,
            1.5847,
            1.2142,
            1.6334,
            2.7123,
            1.1711,
            2.1764,
            1.4225,
            3.3391,
            1.9263,
            0.92666,
            1.0057,
            1.2938,
            1.2908,
            1.3571,
            1.2314,
            1.3093,
            1.5553,
            2.1332,
            1.1464,
            0.97642,
            1.4512,
            2.1704,
            3.501,
            1.5712,
            1.4504,
            0.77825,
            0.81448,
            1.0419,
            1.6143,
            0.56477,
            0.84314,
            1.0909,
            0.88584,
            1.1771,
            1.9842,
            2.0358,
            0.76052,
            0.49355,
            1.8207,
            0.70297,
            1.2367,
            0.72392,
            0.93174,
            1.5131,
            0.84021,
            0.60486,
            1.5532,
            1.9983,
            0.95775,
            0.41849,
            0.49583,
            1.2977,
            0.77081,
            1.8118,
            1.5172,
            0.92659,
            1.0373,
            0.64089,
            0.65389,
            0.73076,
            0.9542,
            1.0416,
            0.67867,
            0.45638,
            0.44491,
            0.45723,
            0.63704,
            1.1224,
            0.64077,
            0.46631,
            0.33094,
            0.81702,
            0.57804,
            1.6909,
            1.5925,
            1.162,
            1.4323,
            0.98776,
            0.69326,
            0.42343,
            1.0522,
            0.66735,
            0.77065,
            0.80037,
            0.41061,
            1.2998,
            0.75505,
            0.65992,
            1.4128,
            0.86946,
            0.61722,
            1.2011,
            0.58935,
            0.50547,
            1.0864,
            1.1889,
            0.72204,
            0.99551,
            1.2499,
            0.56614,
            0.39127,
            0.32033,
            1.074,
            0.7137,
            0.62376,
            0.60591,
            0.64766,
            0.9195,
            1.2363,
            0.96768,
            1.585,
            0.6153,
            0.59309,
            0.97795,
            1.0841,
            1.2751,
            0.99777,
            0.58015,
            1.0088,
            0.84815,
            0.90339,
            0.54506,
            0.45338,
            0.82059,
            1.5677,
            1.1606,
            0.43255,
            0.60403,
            0.82769,
            1.3254,
            1.0216,
            1.0115,
            1.1711,
            1.2216,
            0.89536,
            0.80518,
            0.97159,
            1.0111,
            1.2554,
            0.89122,
            0.95658,
            1.231,
            1.2355,
            1.0582,
            1.4771,
            1.3527,
            1.3012,
            1.4139,
            1.3019,
            1.391,
            1.0408,
            1.2932,
            1.1841,
            1.2276,
            1.4762,
            1.1957,
            1.3522,
            1.1139,
            1.6222,
            1.8165,
            1.8639,
            1.0866,
            1.0203,
            1.1329,
            1.4608,
            1.6525,
            1.4119,
            1.2793,
            1.6693,
            1.6574,
            1.7339,
            1.9185,
            1.5819,
            1.5197,
            1.2111,
            1.479,
            1.95,
            1.8664,
            1.7436,
            2.061,
            2.1374,
            2.4707,
            2.3589,
            1.9508,
            1.909,
            2.2624,
            2.3423,
            2.372,
            2.5033,
            2.3693,
            2.1956,
            2.6632,
            3.016,
            2.6403,
            2.72,
            2.658,
            2.5591,
            2.7286,
            2.4849,
            2.6294,
            2.5209,
            2.3794,
            2.3509,
            2.891,
            2.4228
          ],
          [
            0.8875,
            0.8029,
            3.1832,
            6.5794,
            0.8266,
            0.4047,
            0.4111,
            0.2642,
            0.2122,
            0.2177,
            0.2145,
            0.3068,
            0.3042,
            0.3107,
            0.5565,
            0.7578,
            1.4345,
            0.4118,
            0.4514,
            0.5439,
            1.1577,
            3.6948,
            0.7914,
            0.8061,
            0.5854,
            0.4455,
            0.4521,
            0.3609,
            0.3986,
            0.5869,
            0.4193,
            0.574,
            0.3181,
            0.3248,
            0.4315,
            0.6161,
            0.4144,
            0.4677,
            0.2776,
            0.4803,
            0.8156,
            0.5645,
            0.4337,
            0.5066,
            0.3431,
            0.3404,
            0.3333,
            0.4131,
            0.2826,
            0.5682,
            0.8419,
            0.497,
            0.4833,
            0.3747,
            0.4449,
            0.6124,
            2.0431,
            0.2884,
            0.5265,
            0.4275,
            0.3587,
            0.4048,
            0.5507,
            0.2956,
            0.379,
            0.4676,
            0.2583,
            0.3542,
            0.2456,
            0.3114,
            0.2794,
            0.2557,
            0.2138,
            0.173,
            0.2243,
            0.2042,
            0.171,
            0.1374,
            0.1607,
            0.1262,
            0.1063,
            0.0926,
            0.0854,
            0.0869,
            0.0876,
            0.0742,
            0.0698,
            0.0675,
            0.0666,
            0.0633,
            0.063,
            0.068,
            0.0986,
            0.0931,
            0.0902,
            0.1142,
            0.1341,
            0.1533,
            0.2014,
            0.2504,
            0.241,
            0.2681,
            0.3421,
            0.3454,
            0.3743,
            0.4339,
            0.4938,
            0.5957,
            0.6577,
            0.4221,
            0.3275,
            0.2899,
            0.4437,
            0.2012,
            0.2895,
            0.4183,
            0.2912,
            0.5238,
            0.5964,
            1.498,
            0.3812,
            0.3188,
            0.4143,
            0.3205,
            0.3191,
            0.3265,
            0.5523,
            1.3184,
            0.6448,
            1.4139,
            0.9938,
            0.6555,
            0.3615,
            0.7976,
            0.7547,
            0.6868,
            1.0798,
            0.3034,
            0.3569,
            0.4815,
            0.4593,
            0.4423,
            0.4686,
            0.7613,
            0.5214,
            0.5604,
            1.1962,
            1.3971,
            0.5884,
            0.4422,
            1.3375,
            0.5279,
            0.7864,
            0.4719,
            0.4997,
            0.5892,
            0.3486,
            0.2766,
            0.3914,
            0.4964,
            0.624,
            0.4937,
            0.4812,
            0.3614,
            0.2566,
            0.2696,
            0.3198,
            0.4136,
            1.0197,
            0.4139,
            0.5266,
            0.5136,
            0.543,
            0.7629,
            0.3692,
            0.4594,
            0.795,
            0.5602,
            0.6538,
            0.4197,
            0.3457,
            0.4797,
            0.6963,
            0.3187,
            0.3221,
            0.2704,
            0.4669,
            0.9106,
            0.544,
            0.31,
            0.3044,
            0.3276,
            0.364,
            0.2463,
            0.1941,
            0.1588,
            0.2944,
            0.1807,
            0.172,
            0.1883,
            0.1822,
            0.1959,
            0.1959,
            0.1823,
            0.1128,
            0.1476,
            0.1361,
            0.1279,
            0.1279,
            0.1188,
            0.1053,
            0.1057,
            0.1019,
            0.0942,
            0.0853,
            0.0778,
            0.08,
            0.0937,
            0.0698,
            0.0634,
            0.0624,
            0.0609,
            0.0606,
            0.0618,
            0.061,
            0.0597,
            0.0591,
            0.0647,
            0.0636,
            0.0685,
            0.0674,
            0.0692,
            0.0741,
            0.0794,
            0.1184,
            0.107,
            0.1186,
            0.2148,
            0.1223,
            0.1286,
            0.1267,
            0.1418,
            0.1628,
            0.2014,
            0.3923,
            0.1903,
            0.2033,
            0.2162,
            0.1982,
            0.2479,
            0.2281,
            0.2398,
            0.2382,
            0.2139,
            0.2178,
            0.2617,
            0.2513,
            0.2401,
            0.3473,
            0.38,
            0.2691,
            0.3098,
            0.2902,
            0.32,
            0.404,
            0.5757,
            0.2645,
            0.2915,
            0.2767,
            0.3902,
            0.6107,
            1.4775,
            1.1951,
            0.4676,
            1.0425,
            1.3412,
            2.8613,
            0.5628,
            0.4202,
            0.5757,
            0.3182,
            0.269,
            0.4112,
            0.263,
            0.2214,
            0.2392,
            0.1964,
            0.1412,
            0.1167,
            0.1091,
            0.0987,
            0.0888,
            0.0956,
            0.0737,
            0.0665,
            0.0677,
            0.0768,
            0.1025,
            0.1476,
            0.2018,
            0.2584,
            0.6081,
            0.5149,
            0.443,
            0.6246,
            1.0381,
            1.4739,
            1.9973,
            0.5047,
            0.831,
            0.6929,
            0.2356,
            0.3912,
            0.3278,
            0.6189,
            0.6293,
            0.5187,
            0.4697,
            0.3609,
            0.4313,
            0.3828,
            0.2822,
            0.208,
            0.2476,
            0.1803,
            0.2197,
            0.4258,
            0.7805,
            0.3725,
            0.5386,
            1.3372,
            0.7542,
            1.0944,
            0.5347,
            0.6036,
            0.7386,
            0.6272,
            0.9558,
            0.8461,
            1.9508,
            4.2816,
            1.0078,
            0.5196,
            0.7517,
            1.032,
            0.8371,
            1.3878,
            0.8355,
            0.6317,
            0.7696,
            2.1323,
            1.298,
            0.6206,
            2.035,
            0.4776,
            0.3545,
            0.5661,
            0.6687,
            0.5243,
            0.5948,
            0.7574,
            2.9013,
            0.9266,
            1.2905,
            0.6394,
            0.6391,
            0.9875,
            0.6705,
            0.5487,
            0.6689,
            0.9972,
            0.6241,
            0.6002,
            0.4245,
            0.3256,
            0.5593,
            0.3078,
            0.2667,
            0.3294,
            0.3115,
            0.1988,
            0.1943,
            0.2238,
            0.288,
            0.4331,
            0.6376,
            0.7684,
            0.5305,
            0.4299,
            0.4194,
            0.4605,
            0.4925,
            0.8743,
            0.9425,
            1.4394,
            0.732,
            1.4989,
            0.5305,
            0.7031,
            2.2112,
            0.807,
            0.6753,
            1.094,
            0.8186,
            0.6082,
            0.5318,
            0.5748,
            0.7972,
            0.4636,
            0.9191,
            0.9442,
            0.5741,
            0.8779,
            0.5999,
            0.4671,
            0.5653,
            0.3586,
            0.595,
            0.3963,
            0.8483,
            0.4481,
            0.6915,
            0.4925,
            0.337,
            0.3449,
            0.3578,
            0.3306,
            0.2547,
            0.2024,
            0.1985,
            0.2004,
            0.2183,
            0.1974,
            0.1769,
            0.1769,
            0.2271,
            0.381,
            0.6495,
            0.5571,
            1.2209,
            0.7062,
            1.1881,
            0.7369,
            0.5016,
            0.924,
            0.5139,
            0.4867,
            0.6545,
            0.3367,
            0.8728,
            0.5365,
            0.7732,
            5.4944,
            0.4701,
            1.8095,
            1.3928,
            0.4825,
            0.6449,
            0.7124,
            0.4793,
            0.3271,
            0.4225,
            0.8162,
            0.5322,
            0.3635,
            0.4382,
            0.3382,
            0.3218,
            0.2611,
            0.1791,
            0.2046,
            0.1514,
            0.1331,
            0.1262,
            0.1379,
            0.1093,
            0.114,
            0.1092,
            0.0937,
            0.0878,
            0.0837,
            0.0784,
            0.0783,
            0.0856,
            0.1249,
            0.3755,
            0.4002,
            0.5858,
            0.742,
            0.4618,
            1.2674,
            1.5479,
            0.6291,
            1.6701,
            0.4806,
            175.47,
            0.7636,
            0.6028,
            0.8278,
            0.8373,
            0.9573,
            1.1561,
            0.4192,
            0.6346,
            2.6263,
            0.5751,
            0.549,
            0.3867,
            0.2987,
            0.3035,
            0.2494,
            0.2011,
            0.3108,
            0.3851,
            2.0985,
            1.8458,
            0.7701,
            0.9218,
            1.2528,
            0.7307,
            0.8333,
            64.908,
            2.3028,
            1.0961,
            0.6817,
            1.2269,
            1.0137,
            0.6613,
            0.8184,
            6.6702,
            1.0622,
            0.4902,
            0.5923,
            0.9468,
            0.7177,
            1.7784,
            1.4753,
            5.6636,
            0.7159,
            0.4998,
            0.4801,
            0.6137,
            1.3546,
            1.6722,
            0.6467,
            0.549,
            0.6163,
            1.6221,
            0.9661,
            2.0919,
            1.3572,
            1.0874,
            1.2144,
            0.6782,
            0.9462,
            1.8615,
            0.8218,
            0.3202,
            0.4956,
            0.2018,
            0.291,
            4.1255,
            0.7046,
            1.2236,
            4.8623,
            0.7647,
            44.546,
            0.6902,
            0.8029,
            0.8797,
            7.4462,
            0.894,
            0.5412,
            0.8479,
            0.9777,
            1.0793,
            0.7665,
            1.3601,
            1.1642,
            0.5382,
            1.185,
            1.0274,
            0.5678,
            0.5985,
            1.1249,
            5.0078,
            0.9509,
            0.6774,
            0.8275,
            3.877,
            0.6407,
            3.4553,
            0.9991,
            1.4017,
            6.3433,
            0.8873,
            1.3986,
            0.7117,
            0.5473,
            0.5001,
            0.501,
            0.583,
            0.5667,
            0.7036,
            0.549,
            0.5992,
            7.3818,
            0.8106,
            0.6376,
            0.8079,
            0.9536,
            0.6808,
            0.5952,
            1.3034,
            0.9659,
            0.9264,
            0.8673,
            1.4596,
            0.692,
            1.8803,
            3.1669,
            62.352,
            0.8116,
            0.5639,
            1.0879,
            4.9558,
            0.5981,
            1.5042,
            1.1932,
            0.5648,
            0.7796,
            0.5027,
            0.8815,
            1.476,
            8.0099,
            0.8543,
            0.7363,
            0.5423,
            2.505,
            0.6339,
            2.1046,
            1.1974,
            0.6508,
            0.5008,
            0.6458,
            1.2999,
            1.9731,
            4.0225,
            1.1327,
            0.7449,
            0.6698,
            1.4377,
            1.1636,
            0.743,
            0.448,
            0.3338,
            0.3997,
            0.2976,
            0.2466,
            0.2403,
            0.3948,
            0.4116,
            0.6969,
            0.6429,
            1.8622,
            0.4488,
            0.6251,
            0.9035,
            1.3317,
            0.5541,
            0.5559,
            0.6206,
            1.0838,
            1.8144,
            0.7987,
            0.7165,
            1.5269,
            1.4399,
            1.546,
            0.7259,
            1.1079,
            1.0924,
            0.766,
            0.3896,
            0.297,
            0.4748,
            0.3326,
            0.269,
            0.1977,
            0.2959,
            0.3685,
            0.3435,
            0.4591,
            0.6274,
            0.7528,
            1.0801,
            0.9804,
            4.5054,
            3.9237,
            0.6954,
            1.6701,
            0.6691,
            0.966,
            1.2833,
            2.3381,
            16.112,
            0.5725,
            0.3442,
            0.7955,
            21.616,
            0.9591,
            1.6527,
            1.1416,
            1.1022,
            4.0172,
            0.9727,
            4.9757,
            3.6146,
            15.575,
            1.7779,
            0.9058,
            0.3549,
            0.3357,
            0.4136,
            0.3623,
            0.3687,
            0.4933,
            0.4815,
            0.7275,
            6.8899,
            2.3906,
            0.8197,
            1.7858,
            0.7266,
            1.4986,
            0.6867,
            0.6476,
            0.91,
            0.5951,
            0.6171,
            0.7978,
            0.7868,
            0.8073,
            0.6042,
            0.6601,
            0.6193,
            0.2928,
            0.4088,
            0.5051,
            0.6588,
            1.1845,
            1.3535,
            0.4672,
            0.9429,
            0.9605,
            3.2026,
            0.2286,
            0.9014,
            3.2884,
            10.179,
            1.894,
            0.9252,
            1.5247,
            41.145,
            0.735,
            2.2602,
            0.8725,
            0.8509,
            0.4755,
            0.5726,
            0.8629,
            0.8505,
            12.174,
            1.4453,
            3.3748,
            1.9473,
            1.0066,
            1.6103,
            0.5115,
            0.6594,
            1.3079,
            0.9337,
            22.252,
            0.7946,
            0.7951,
            0.6175,
            1.7911,
            18.605,
            0.9366,
            0.82,
            0.6579,
            1.0515,
            0.7105,
            5.4928,
            0.646,
            1.3621,
            0.5885,
            0.67,
            0.5197,
            0.934,
            0.542,
            0.447,
            0.2741,
            0.4476,
            0.3615,
            0.173,
            0.2501,
            0.2275,
            0.2741,
            0.2771,
            2.1795,
            1.2215,
            0.9038,
            0.6106,
            0.8076,
            0.7066,
            0.927,
            0.5457,
            0.4382,
            0.3451,
            0.3799,
            0.3461,
            0.5752,
            0.5627,
            1.0142,
            1.6532,
            1.4642,
            1.3687,
            5.4791,
            4.5198,
            0.9535,
            3.214,
            0.9523,
            1.7383,
            1.2902,
            1.895,
            0.8166,
            1.5896,
            0.9249,
            23.776,
            1.2739,
            0.8741,
            7.8694,
            0.7935,
            1.356,
            7.1417,
            0.9996,
            1.5987,
            0.9218,
            0.7507,
            0.5634,
            0.4083,
            0.334,
            0.3274,
            0.3659,
            0.3337,
            0.6084,
            0.6169,
            1.9266,
            2.6772,
            0.6723,
            0.8714,
            1.296,
            0.826,
            0.6348,
            0.8329,
            1.0286,
            0.6147,
            1.1756,
            0.623,
            3.4582,
            3.0091,
            0.7666,
            0.6427,
            0.9963,
            0.8818,
            0.9305,
            2.4381,
            1.9909,
            1.2642,
            0.6326,
            6.6263,
            1.8133,
            1.147,
            0.9984,
            1.2836,
            0.9215,
            0.967,
            0.8497,
            0.4131,
            1.1621,
            0.5257,
            0.5505,
            0.5445,
            0.7365,
            1.143,
            1.1893,
            0.6139,
            0.8752,
            1.3985,
            0.8638,
            0.7118,
            0.8673,
            41.84,
            1.175,
            0.5476,
            0.4905,
            0.4327,
            0.6235,
            1.0707,
            3.101,
            0.9645,
            1.2907,
            0.9369,
            1.5432,
            0.8189,
            0.5542,
            0.3833,
            0.491,
            1.6281,
            0.6592,
            1.1098,
            0.8736,
            0.8455,
            0.7449,
            0.4097,
            0.4882,
            0.4752,
            0.3925,
            0.3384,
            0.2101,
            0.2215,
            0.2597,
            0.2821,
            0.2739,
            0.5376,
            0.5903,
            0.5595,
            1.9816,
            0.7159,
            0.7622,
            3.0553,
            1.9904,
            3.213,
            4.1367,
            0.7093,
            0.7792,
            0.9155,
            0.4162,
            0.5749,
            0.6467,
            0.8685,
            2.2083,
            1.5652,
            2.9143,
            0.8773,
            2.1731,
            0.6517,
            0.5002,
            0.4746,
            0.6075,
            2.2778,
            2.6968,
            0.8729,
            0.774,
            1.46,
            1.9547,
            0.7062,
            1.0869,
            1.0056,
            2.5956,
            2.2168,
            1.6132,
            0.7291,
            0.8657,
            1.1967,
            1.1847,
            0.7667,
            2.2841,
            1.2698,
            0.6291,
            0.7202,
            0.5762,
            0.2433,
            0.2544,
            0.3568,
            0.849,
            0.9198,
            2.7405,
            396.31,
            0.583,
            0.8827,
            0.8774,
            1.7622,
            1.0073,
            1.0185,
            2.3479,
            0.8122,
            2.1453,
            0.9058,
            1.4221,
            0.7929,
            0.8462,
            0.8536,
            16.492,
            2.0581,
            43.802,
            0.908,
            0.4438,
            0.7207,
            0.7204,
            1.3189,
            0.9754,
            0.9443,
            0.5879,
            0.8872,
            0.7246,
            0.8823,
            1.3592,
            0.6892,
            0.6586,
            2.1614,
            1.6484,
            8.8481,
            1.1401,
            0.8482,
            1.6954,
            2.9778,
            0.7449,
            2.423,
            1.7566,
            1.8308,
            2.2178,
            4.246,
            0.7143,
            3.0669,
            1.0364,
            0.6466,
            0.4879,
            0.4229,
            0.873,
            0.6054,
            0.7594,
            1.2787,
            0.9117,
            0.783,
            1.0382,
            0.5232,
            0.5138,
            0.6545,
            0.8051,
            0.5372,
            0.8725,
            4.1877,
            1.2531,
            0.8097,
            0.9111,
            0.5923,
            0.4026,
            0.6217,
            0.938,
            4.2282,
            1.8709,
            0.9547,
            0.5703,
            0.5566,
            0.6903,
            0.5724,
            0.4143,
            0.8132,
            1.1853,
            0.9237,
            0.7466,
            0.4655,
            0.5996,
            0.9011,
            0.8274,
            0.3192,
            0.4248,
            0.5545,
            0.5456,
            0.4913,
            1.3459,
            0.5875,
            0.5517,
            0.9569,
            0.6173,
            0.9342,
            5.4275,
            0.5989,
            1.5998,
            0.8705,
            0.4638,
            0.4116,
            0.3199,
            0.7347,
            0.9712,
            0.6244,
            0.4764,
            0.5171,
            0.7178,
            0.54,
            0.4482,
            0.7961,
            0.4185,
            0.2044,
            0.3983,
            0.7208,
            0.9674,
            0.5875,
            0.3731,
            0.4048,
            0.3268,
            0.4969,
            0.6364,
            0.787,
            0.5537,
            0.6128,
            0.6842,
            0.5005,
            0.5716,
            0.2663,
            0.3654,
            0.7325,
            0.7657,
            0.9498,
            1.2245,
            4.9287,
            0.7204,
            0.9344,
            1.794,
            0.9962,
            1.2469,
            0.4482,
            0.462,
            0.632,
            0.7813,
            1.1382,
            0.4669,
            0.6231,
            0.6448,
            0.7968,
            0.5379,
            0.5846,
            0.757,
            0.6271,
            0.3958,
            0.3852,
            0.62,
            0.8756,
            1.5008,
            0.7887,
            0.4677,
            0.6401,
            0.6811,
            0.8488,
            0.6111,
            0.37,
            0.5037,
            0.4833,
            0.3637,
            0.569,
            0.4124,
            0.4905,
            0.791,
            0.7192,
            0.7101,
            0.5964,
            0.4174,
            1.0625,
            0.7797,
            0.7891,
            0.8973,
            0.4877,
            0.4383,
            1.4438,
            0.7567,
            0.8732,
            1.1208,
            0.4505,
            0.6401,
            0.5462,
            1.1953,
            0.5498,
            0.4105,
            0.7029,
            0.449,
            0.7456,
            0.7315,
            0.6075,
            0.4379,
            0.3887,
            0.3318,
            0.548,
            0.6907,
            0.8038,
            0.672,
            0.447,
            0.556,
            0.73,
            0.7737,
            0.6933,
            0.43,
            0.3088,
            0.2871,
            0.3218,
            0.4615,
            0.4455,
            0.5739,
            0.8462,
            0.4507,
            0.7812,
            0.6374,
            0.4751,
            0.2965,
            0.2282,
            0.4535,
            0.4166,
            0.3941,
            0.5633,
            0.8848,
            0.4597,
            0.3737,
            0.3958,
            0.6782,
            0.4833,
            0.5239,
            0.7705,
            1.0576,
            0.5869,
            0.6583,
            0.5833,
            0.6956,
            0.683,
            0.472,
            0.629,
            0.9286,
            0.7455,
            0.5308,
            0.6639,
            0.9367,
            0.9142,
            0.3582,
            0.4533,
            0.3173,
            0.489,
            0.5678,
            0.3809,
            0.4503,
            0.4388,
            0.3016,
            0.3657,
            0.4162,
            0.6697,
            0.8124,
            0.5211,
            0.5185,
            0.6724,
            0.4924,
            0.3739,
            0.4647,
            0.8773,
            0.5266,
            0.6103,
            0.4013,
            0.4153,
            0.435,
            0.4281,
            0.5044,
            0.6361,
            0.6824,
            0.2828,
            0.3323,
            0.3878,
            0.3464,
            0.7656,
            0.3995,
            0.5415,
            0.592,
            0.3633,
            0.4629,
            0.6144,
            0.5688,
            0.3529,
            0.6949,
            0.5686,
            0.4227,
            0.5217,
            0.3565,
            0.5852,
            0.6162,
            0.4805,
            0.826,
            0.5198,
            0.2947,
            0.3552,
            0.3362,
            0.4466,
            0.3642,
            0.3475,
            0.4652,
            0.3198,
            0.3907,
            0.4918,
            0.4317,
            0.3042,
            0.2321,
            0.4204,
            0.5489,
            0.2366,
            0.2513,
            0.3649,
            0.5576,
            0.5942,
            0.4374,
            0.3355,
            0.3638,
            0.5759,
            0.3797,
            0.2901,
            0.2271,
            0.2464,
            0.2977,
            0.2661,
            0.2389,
            0.2686,
            0.2931,
            0.2144,
            0.204,
            0.2609,
            0.2905,
            0.2802,
            0.2347,
            0.2029,
            0.2061,
            0.1687,
            0.1655,
            0.1791,
            0.1525,
            0.1543,
            0.1583,
            0.1558,
            0.1394,
            0.1367,
            0.1383,
            0.2223,
            0.2368,
            0.2284,
            0.2632,
            0.1937,
            0.1863,
            0.1909,
            0.2255,
            0.2283,
            0.2163,
            0.1924,
            0.1837,
            0.1894,
            0.1892,
            0.1693,
            0.1646,
            0.1618,
            0.1558,
            0.1641,
            0.165,
            0.1772,
            0.1641,
            0.1487,
            0.1497,
            0.1536,
            0.1473,
            0.1446,
            0.1406,
            0.1403,
            0.1467,
            0.146,
            0.1391,
            0.1368,
            0.1358,
            0.133,
            0.1348,
            0.1377,
            0.1307,
            0.1265,
            0.131,
            0.1308,
            0.1326,
            0.135,
            0.1353,
            0.1418,
            0.1428,
            0.1498,
            0.1635,
            0.1702,
            0.1712,
            0.2008
          ]
        ]
      }
    },
    "003": {
      "common": null,
      "data": {
        "heads": [
          "DATA      1",
          "DATA      2",
          "DATA-ERR  2"
        ],
        "units": [
          "EV",
          "B*EV",
          "B*EV"
        ],
        "data": [
          [
            24.55,
            36.35,
            68.37,
            79.16,
            88.25,
            138.1,
            190.1,
            217.7,
            246.2,
            307.1,
            338.0,
            387.4,
            393.6,
            404.8,
            417.0,
            426.7,
            445.4,
            490.8,
            520.2,
            557.2,
            561.9,
            606.4,
            626.4,
            643.7,
            674.2,
            706.2,
            726.1,
            754.1,
            771.1,
            813.5,
            833.1,
            841.0,
            877.6,
            931.8,
            983.5
          ],
          [
            20.2,
            625.0,
            2137.0,
            98.0,
            5.8,
            24.8,
            18.9,
            460.0,
            33.0,
            24.7,
            14.7,
            100.0,
            14.4,
            114.0,
            22.6,
            70.0,
            64.0,
            43.0,
            19.0,
            258.0,
            78.0,
            117.0,
            10.0,
            13.0,
            32.0,
            31.0,
            404.0,
            41.0,
            43.0,
            9.0,
            186.0,
            18.0,
            31.0,
            16.0,
            10.0
          ],
          [
            5.1,
            49.0,
            66.0,
            8.0,
            1.6,
            4.2,
            4.7,
            38.0,
            8.0,
            3.6,
            3.8,
            11.0,
            3.8,
            12.0,
            5.1,
            9.0,
            10.0,
            10.0,
            5.0,
            26.0,
            11.0,
            16.0,
            7.0,
            9.0,
            10.0,
            8.0,
            41.0,
            10.0,
            10.0,
            6.0,
            28.0,
            7.0,
            10.0,
            8.0,
            9.0
          ]
        ]
      }
    }
  },
  "experimental_conditions": {
    "001": {
      "0": {
        "detector": [
          {
            "x4_code": "(SOLST)",
            "free_txt": [
              " Solid state detector"
            ]
          }
        ],
        "err-analys": [
          {
            "x4_code": "(DATA-ERR)",
            "free_txt": [
              " No information on source of uncertainties."
            ]
          }
        ],
        "inc-source": [
          {
            "x4_code": "(EXPLO)",
            "free_txt": [
              " Underground nuclear explosion - PHYSICS-8."
            ]
          }
        ],
        "method": [
          {
            "x4_code": "(TOF)",
            "free_txt": [
              " Time-of-flight"
            ]
          }
        ],
        "monitor": [
          {
            "x4_code": "(3-LI-6(N,T)2-HE-4,,SIG)",
            "free_txt": [
              " below 100 keV",
              " from Schwartz, Nucl.Phys.63, 593 (1965)."
            ]
          },
          {
            "x4_code": "(92-U-235(N,F),,SIG)",
            "free_txt": [
              " above 100 keV.",
              " from Davey, Nucl.Sci.Eng.26, 149 (1966)."
            ]
          }
        ],
        "sample": [
          {
            "x4_code": null,
            "free_txt": [
              "Isotopic composition of sample: 248Cm (10.1%),",
              " 249Cm (0.03%), 250Cf (0.66%), 251Cf (0.17%),",
              " 252Cf (89.0%), 253Cf (0.01%), 254Cf (0.03%)."
            ]
          }
        ],
        "status": [
          {
            "x4_code": "(APRVD)",
            "free_txt": [
              " Approved by author"
            ]
          }
        ]
      }
    },
    "002": {
      "0": {
        "status": [
          {
            "x4_code": null,
            "free_txt": [
              "Data received on magnetic tape from Moore, Oct. 1973."
            ]
          }
        ]
      }
    },
    "003": {
      "0": {
        "analysis": [
          {
            "x4_code": "(AREA)",
            "free_txt": [
              " Single level area analysis."
            ]
          }
        ],
        "status": [
          {
            "x4_code": null,
            "free_txt": [
              "Data taken from Table I in reference."
            ]
          }
        ]
      }
    }
  }
}