{
  "entry": "10520",
  "last_updated": "2023-05-23",
  "number_of_revisions": "4",
  "histories": [
    {
      "x4_code": "(19750624C)",
      "free_txt": []
    },
    {
      "x4_code": "(19830824A)",
      "free_txt": [
        " Converted to REACTION formalism"
      ]
    },
    {
      "x4_code": "(20040427A)",
      "free_txt": [
        " Updated to new date formats, lower case."
      ]
    }
  ],
  "bib_record": {
    "title": "Neutron resonance spectroscopy: 177Hf",
    "authors": [
      {
        "name": "H.I.Liou"
      },
      {
        "name": "J.Rainwater"
      },
      {
        "name": "G.Hacken"
      },
      {
        "name": "U.N.Singh"
      }
    ],
    "institutes": [
      {
        "x4_code": "(1USACOL)",
        "free_txt": []
      }
    ],
    "references": [
      {
        "x4_code": "(J,PR/C,11,2022,197506)",
        "free_txt": [],
        "publication_year": "1975",
        "doi": null,
        "pointer": "0"
      }
    ],
    "facilities": [
      {
        "x4_code": "(SYNCH,1USACOL)",
        "free_txt": [
          " Nevis synchrocyclotron"
        ],
        "pointer": "0",
        "facility_type": "(SYNCH)",
        "institute": "(1USACOL)"
      }
    ]
  },
  "reactions": {
    "002": {
      "1": {
        "x4_code": "(72-HF-177(N,0),,EN)",
        "children": [
          {
            "code": [
              "72-HF-177",
              [
                "N,0"
              ],
              ",,EN"
            ],
            "type": null,
            "target": "72-HF-177",
            "process": "N,0",
            "sf49": ",,EN",
            "sf4": null,
            "sf5": null,
            "sf6": "EN",
            "sf7": null,
            "sf8": null,
            "sf9": null
          }
        ],
        "type": null,
        "free_text": "",
        "pointer": "1"
      },
      "2": {
        "x4_code": "(72-HF-177(N,EL),,WID/RED,,G)",
        "children": [
          {
            "code": [
              "72-HF-177",
              [
                "N,EL"
              ],
              ",,WID/RED,,G"
            ],
            "type": null,
            "target": "72-HF-177",
            "process": "N,EL",
            "sf49": ",,WID/RED,,G",
            "sf4": null,
            "sf5": null,
            "sf6": "WID/RED",
            "sf7": null,
            "sf8": "G",
            "sf9": null
          }
        ],
        "type": null,
        "free_text": "",
        "pointer": "2"
      },
      "3": {
        "x4_code": "(72-HF-177(N,G),,WID)",
        "children": [
          {
            "code": [
              "72-HF-177",
              [
                "N,G"
              ],
              ",,WID"
            ],
            "type": null,
            "target": "72-HF-177",
            "process": "N,G",
            "sf49": ",,WID",
            "sf4": null,
            "sf5": null,
            "sf6": "WID",
            "sf7": null,
            "sf8": null,
            "sf9": null
          }
        ],
        "type": null,
        "free_text": "",
        "pointer": "3"
      }
    },
    "004": {
      "1": {
        "x4_code": "(72-HF-178(N,0),,EN)",
        "children": [
          {
            "code": [
              "72-HF-178",
              [
                "N,0"
              ],
              ",,EN"
            ],
            "type": null,
            "target": "72-HF-178",
            "process": "N,0",
            "sf49": ",,EN",
            "sf4": null,
            "sf5": null,
            "sf6": "EN",
            "sf7": null,
            "sf8": null,
            "sf9": null
          }
        ],
        "type": null,
        "free_text": "",
        "pointer": "1"
      },
      "2": {
        "x4_code": "(72-HF-178(N,EL),,WID/RED)",
        "children": [
          {
            "code": [
              "72-HF-178",
              [
                "N,EL"
              ],
              ",,WID/RED"
            ],
            "type": null,
            "target": "72-HF-178",
            "process": "N,EL",
            "sf49": ",,WID/RED",
            "sf4": null,
            "sf5": null,
            "sf6": "WID/RED",
            "sf7": null,
            "sf8": null,
            "sf9": null
          }
        ],
        "type": null,
        "free_text": "",
        "pointer": "2"
      }
    },
    "005": {
      "0": {
        "x4_code": "(72-HF-177(N,EL),,STF)",
        "children": [
          {
            "code": [
              "72-HF-177",
              [
                "N,EL"
              ],
              ",,STF"
            ],
            "type": null,
            "target": "72-HF-177",
            "process": "N,EL",
            "sf49": ",,STF",
            "sf4": null,
            "sf5": null,
            "sf6": "STF",
            "sf7": null,
            "sf8": null,
            "sf9": null
          }
        ],
        "type": null,
        "free_text": "",
        "pointer": "0"
      }
    },
    "006": {
      "0": {
        "x4_code": "(72-HF-177(N,0),,D)",
        "children": [
          {
            "code": [
              "72-HF-177",
              [
                "N,0"
              ],
              ",,D"
            ],
            "type": null,
            "target": "72-HF-177",
            "process": "N,0",
            "sf49": ",,D",
            "sf4": null,
            "sf5": null,
            "sf6": "D",
            "sf7": null,
            "sf8": null,
            "sf9": null
          }
        ],
        "type": null,
        "free_text": "",
        "pointer": "0"
      }
    },
    "007": {
      "0": {
        "x4_code": "(72-HF-178(N,EL),,STF)",
        "children": [
          {
            "code": [
              "72-HF-178",
              [
                "N,EL"
              ],
              ",,STF"
            ],
            "type": null,
            "target": "72-HF-178",
            "process": "N,EL",
            "sf49": ",,STF",
            "sf4": null,
            "sf5": null,
            "sf6": "STF",
            "sf7": null,
            "sf8": null,
            "sf9": null
          }
        ],
        "type": null,
        "free_text": "",
        "pointer": "0"
      }
    },
    "008": {
      "0": {
        "x4_code": "(72-HF-177(N,TOT),,SIG)",
        "children": [
          {
            "code": [
              "72-HF-177",
              [
                "N,TOT"
              ],
              ",,SIG"
            ],
            "type": null,
            "target": "72-HF-177",
            "process": "N,TOT",
            "sf49": ",,SIG",
            "sf4": null,
            "sf5": null,
            "sf6": "SIG",
            "sf7": null,
            "sf8": null,
            "sf9": null
          }
        ],
        "type": null,
        "free_text": "",
        "pointer": "0"
      }
    }
  },
  "data_tables": {
    "001": {
      "common": null
    },
    "002": {
      "common": {
        "heads": [
          "MOMENTUM L"
        ],
        "units": [
          "NO-DIM"
        ],
        "data": [
          [
            0.0
          ]
        ]
      },
      "data": {
        "heads": [
          "DATA      1",
          "DATA-ERR  1",
          "DATA      2",
          "DATA-ERR  2",
          "DATA      3",
          "DATA-ERR  3"
        ],
        "units": [
          "EV",
          "EV",
          "MILLI-EV",
          "MILLI-EV",
          "MILLI-EV",
          "MILLI-EV"
        ],
        "data": [
          [
            1.098,
            2.38,
            5.894,
            6.572,
            8.868,
            10.95,
            13.67,
            13.94,
            21.95,
            22.23,
            23.41,
            25.62,
            26.99,
            31.61,
            32.77,
            36.08,
            36.94,
            43.03,
            45.09,
            46.18,
            48.76,
            49.56,
            54.71,
            56.29,
            57.0,
            59.21,
            62.15,
            63.42,
            66.69,
            69.96,
            71.29,
            72.22,
            75.41,
            75.99,
            82.33,
            84.56,
            85.25,
            86.73,
            88.51,
            93.13,
            97.01,
            98.98,
            103.07,
            111.5,
            111.96,
            115.03,
            121.17,
            122.72,
            123.68,
            126.17,
            131.59,
            134.0,
            136.15,
            137.42,
            141.12,
            143.15,
            143.71,
            145.53,
            148.52,
            151.15,
            152.86,
            155.94,
            159.97,
            162.98,
            167.28,
            171.03,
            174.18,
            176.11,
            176.7,
            178.89,
            180.94,
            184.54,
            188.01,
            192.66,
            194.0,
            199.14,
            201.79,
            205.65,
            208.64,
            209.98,
            212.05,
            217.03,
            219.51,
            222.26,
            223.3,
            224.67,
            226.56,
            229.08,
            232.2,
            236.16,
            238.64,
            240.71,
            248.74,
            259.65,
            264.48,
            267.57,
            272.22,
            273.16,
            284.69,
            287.85,
            294.19,
            298.47,
            302.37,
            306.96,
            310.92,
            313.6,
            319.85,
            323.6,
            327.46,
            330.38,
            333.4,
            341.79,
            348.74,
            354.74,
            357.08,
            362.33,
            367.45,
            370.67,
            375.55,
            389.84,
            393.63,
            398.82,
            406.15,
            408.8,
            412.88,
            414.9,
            418.8,
            426.09,
            429.18,
            431.7,
            433.56,
            434.92,
            435.91,
            443.4,
            446.57,
            449.43,
            453.81,
            457.36,
            466.58,
            470.77,
            472.17,
            474.99,
            478.7,
            481.58,
            488.6,
            498.51,
            507.15,
            512.19,
            520.71,
            523.02,
            525.46,
            533.2,
            539.1,
            541.3,
            548.63,
            557.22,
            573.74,
            577.4,
            581.92,
            591.1,
            596.92,
            598.97,
            604.66,
            610.4,
            612.52,
            618.92,
            625.54,
            628.7,
            633.16,
            640.59,
            646.4,
            653.89,
            657.8,
            669.15,
            676.47,
            684.7,
            693.11,
            696.63
          ],
          [
            0.02,
            0.004,
            0.016,
            0.017,
            0.019,
            0.02,
            0.02,
            0.02,
            0.03,
            0.02,
            0.02,
            0.03,
            0.03,
            0.03,
            0.04,
            0.04,
            0.04,
            0.04,
            0.05,
            0.05,
            0.05,
            0.03,
            0.04,
            0.05,
            0.05,
            0.05,
            0.06,
            0.07,
            0.08,
            0.08,
            0.08,
            0.08,
            0.08,
            0.08,
            0.06,
            0.06,
            0.11,
            0.06,
            0.06,
            0.07,
            0.07,
            0.07,
            0.07,
            0.13,
            0.13,
            0.09,
            0.09,
            0.1,
            0.1,
            0.1,
            0.11,
            0.11,
            0.12,
            0.12,
            0.12,
            0.19,
            0.19,
            0.13,
            0.13,
            0.13,
            0.2,
            0.14,
            0.15,
            0.15,
            0.15,
            0.16,
            0.13,
            0.13,
            0.13,
            0.17,
            0.14,
            0.18,
            0.18,
            0.19,
            0.19,
            0.16,
            0.2,
            0.21,
            0.17,
            0.21,
            0.22,
            0.23,
            0.23,
            0.23,
            0.24,
            0.24,
            0.24,
            0.24,
            0.25,
            0.26,
            0.26,
            0.26,
            0.27,
            0.29,
            0.3,
            0.31,
            0.31,
            0.32,
            0.34,
            0.34,
            0.35,
            0.36,
            0.37,
            0.3,
            0.38,
            0.39,
            0.4,
            0.41,
            0.42,
            0.42,
            0.43,
            0.44,
            0.46,
            0.47,
            0.47,
            0.48,
            0.5,
            0.5,
            0.51,
            0.54,
            0.55,
            0.56,
            0.57,
            0.58,
            0.59,
            0.59,
            0.6,
            0.62,
            0.62,
            0.49,
            0.5,
            0.5,
            0.5,
            0.51,
            0.52,
            0.53,
            0.68,
            0.54,
            0.71,
            0.56,
            0.56,
            0.57,
            0.58,
            0.74,
            0.6,
            0.61,
            0.63,
            0.64,
            0.65,
            0.66,
            0.66,
            0.86,
            0.87,
            0.88,
            0.71,
            0.92,
            0.76,
            0.76,
            0.98,
            1.01,
            1.02,
            1.03,
            0.81,
            1.06,
            1.06,
            1.08,
            0.86,
            0.87,
            1.11,
            0.89,
            0.9,
            0.92,
            0.92,
            1.21,
            1.23,
            0.98,
            1.0,
            1.01
          ],
          [
            null,
            null,
            0.87,
            1.7,
            1.1,
            0.073,
            0.092,
            0.37,
            0.23,
            0.085,
            0.18,
            0.041,
            0.26,
            0.027,
            0.14,
            0.25,
            0.89,
            0.43,
            0.29,
            0.59,
            2.6,
            0.4,
            1.07,
            0.8,
            0.29,
            0.22,
            0.099,
            4.4,
            2.7,
            0.043,
            0.98,
            0.13,
            0.078,
            1.1,
            0.045,
            1.6,
            0.12,
            0.056,
            0.2,
            0.26,
            1.1,
            0.052,
            2.7,
            0.12,
            0.25,
            0.24,
            0.21,
            0.07,
            0.52,
            0.054,
            2.3,
            0.2,
            0.032,
            0.8,
            1.1,
            0.18,
            0.71,
            0.3,
            0.75,
            0.023,
            0.071,
            0.1,
            0.17,
            1.5,
            0.28,
            0.51,
            0.68,
            1.7,
            2.1,
            0.028,
            0.25,
            0.048,
            0.024,
            0.35,
            0.28,
            0.89,
            0.68,
            0.054,
            1.7,
            0.12,
            0.058,
            0.24,
            0.36,
            0.074,
            0.12,
            4.5,
            0.45,
            0.22,
            0.039,
            0.36,
            1.4,
            0.84,
            0.72,
            0.06,
            2.2,
            1.3,
            1.8,
            0.45,
            5.3,
            0.31,
            0.12,
            2.1,
            0.09,
            3.3,
            0.24,
            0.45,
            0.84,
            1.2,
            3.2,
            4.3,
            1.2,
            0.97,
            2.5,
            0.33,
            1.2,
            0.35,
            1.6,
            0.88,
            7.7,
            0.71,
            0.17,
            0.27,
            2.0,
            0.37,
            0.84,
            2.7,
            0.68,
            2.2,
            1.0,
            0.96,
            1.4,
            1.4,
            1.5,
            1.2,
            1.6,
            0.66,
            0.14,
            4.0,
            0.19,
            0.88,
            1.5,
            2.3,
            1.5,
            0.33,
            4.8,
            1.3,
            1.6,
            1.5,
            0.61,
            1.4,
            3.1,
            0.27,
            0.22,
            0.15,
            2.9,
            0.29,
            1.3,
            3.2,
            1.1,
            0.37,
            0.32,
            0.24,
            2.4,
            0.73,
            1.1,
            0.52,
            1.2,
            3.4,
            0.13,
            1.7,
            2.8,
            1.6,
            0.97,
            0.89,
            1.4,
            3.2,
            2.8,
            2.6
          ],
          [
            null,
            null,
            0.12,
            0.2,
            0.1,
            0.009,
            0.014,
            0.05,
            0.04,
            0.015,
            0.02,
            0.006,
            0.03,
            0.005,
            0.01,
            0.03,
            0.08,
            0.03,
            0.02,
            0.05,
            0.3,
            0.04,
            0.08,
            0.09,
            0.04,
            0.03,
            0.019,
            0.4,
            0.4,
            0.011,
            0.09,
            0.02,
            0.023,
            0.1,
            0.011,
            0.1,
            0.03,
            0.013,
            0.03,
            0.03,
            0.1,
            0.015,
            0.3,
            0.03,
            0.05,
            0.03,
            0.03,
            0.018,
            0.05,
            0.013,
            0.2,
            0.03,
            0.01,
            0.09,
            0.1,
            0.04,
            0.13,
            0.03,
            0.07,
            0.009,
            0.018,
            0.03,
            0.03,
            0.2,
            0.05,
            0.09,
            0.08,
            0.3,
            0.4,
            0.008,
            0.03,
            0.015,
            0.015,
            0.06,
            0.04,
            0.09,
            0.11,
            0.028,
            0.2,
            0.03,
            0.021,
            0.04,
            0.05,
            0.04,
            0.07,
            0.7,
            0.07,
            0.04,
            0.013,
            0.07,
            0.3,
            0.13,
            0.1,
            0.02,
            0.3,
            0.2,
            0.4,
            0.15,
            0.8,
            0.06,
            0.03,
            0.3,
            0.03,
            0.5,
            0.06,
            0.11,
            0.11,
            0.2,
            0.5,
            0.7,
            0.2,
            0.16,
            0.4,
            0.09,
            0.2,
            0.07,
            0.3,
            0.16,
            1.3,
            0.15,
            0.05,
            0.07,
            0.3,
            0.1,
            0.3,
            0.5,
            0.15,
            0.4,
            0.2,
            0.19,
            0.3,
            0.3,
            0.4,
            0.2,
            0.4,
            0.14,
            0.08,
            0.6,
            0.09,
            0.28,
            0.4,
            0.5,
            0.3,
            0.11,
            0.7,
            0.4,
            0.4,
            0.4,
            0.18,
            0.3,
            0.7,
            0.09,
            0.13,
            0.09,
            0.4,
            0.08,
            0.4,
            0.9,
            0.3,
            0.12,
            0.16,
            0.14,
            0.5,
            0.24,
            0.4,
            0.16,
            0.4,
            0.8,
            0.08,
            0.4,
            0.7,
            0.6,
            0.35,
            0.23,
            0.4,
            0.8,
            0.7,
            0.6
          ],
          [
            null,
            null,
            null,
            null,
            null,
            null,
            null,
            null,
            null,
            null,
            null,
            null,
            null,
            null,
            null,
            null,
            null,
            null,
            null,
            null,
            61.0,
            null,
            null,
            null,
            null,
            null,
            null,
            57.0,
            null,
            null,
            null,
            null,
            null,
            null,
            null,
            75.0,
            null,
            null,
            null,
            null,
            62.0,
            null,
            56.0,
            null,
            null,
            null,
            null,
            null,
            null,
            null,
            65.0,
            null,
            null,
            null,
            70.0,
            null,
            null,
            null,
            null,
            null,
            null,
            null,
            null,
            68.0,
            null,
            null,
            null,
            null,
            null,
            null,
            null,
            null,
            null,
            null,
            null,
            72.0,
            null,
            null,
            65.0,
            null,
            null,
            null,
            null,
            null,
            null,
            null,
            null,
            null,
            null,
            null,
            null,
            58.0,
            57.0,
            null,
            51.0,
            74.0,
            null,
            null,
            112.0,
            null,
            null,
            null,
            null,
            70.0,
            null,
            null,
            77.0,
            null,
            null,
            null,
            60.0,
            60.0,
            null,
            null,
            null,
            null,
            75.0,
            null,
            null,
            null,
            null,
            null,
            61.0,
            null,
            null,
            null,
            null,
            null,
            null,
            null,
            null,
            null,
            null,
            null,
            null,
            null,
            null,
            58.0,
            null,
            null,
            null,
            null,
            null,
            null,
            68.0,
            null,
            null,
            null,
            null,
            null,
            null,
            null,
            null,
            null,
            60.0,
            null,
            null,
            null,
            null,
            null,
            null,
            null,
            54.0,
            null,
            null,
            null,
            null,
            null,
            null,
            null,
            null,
            null,
            null,
            null,
            null,
            null,
            null,
            null
          ],
          [
            null,
            null,
            null,
            null,
            null,
            null,
            null,
            null,
            null,
            null,
            null,
            null,
            null,
            null,
            null,
            null,
            null,
            null,
            null,
            null,
            15.0,
            null,
            null,
            null,
            null,
            null,
            null,
            12.0,
            null,
            null,
            null,
            null,
            null,
            null,
            null,
            20.0,
            null,
            null,
            null,
            null,
            15.0,
            null,
            15.0,
            null,
            null,
            null,
            null,
            null,
            null,
            null,
            12.0,
            null,
            null,
            null,
            20.0,
            null,
            null,
            null,
            null,
            null,
            null,
            null,
            null,
            20.0,
            null,
            null,
            null,
            null,
            null,
            null,
            null,
            null,
            null,
            null,
            null,
            18.0,
            null,
            null,
            18.0,
            null,
            null,
            null,
            null,
            null,
            null,
            null,
            null,
            null,
            null,
            null,
            null,
            20.0,
            20.0,
            null,
            18.0,
            20.0,
            null,
            null,
            20.0,
            null,
            null,
            null,
            null,
            18.0,
            null,
            null,
            20.0,
            null,
            null,
            null,
            20.0,
            20.0,
            null,
            null,
            null,
            null,
            20.0,
            null,
            null,
            null,
            null,
            null,
            20.0,
            null,
            null,
            null,
            null,
            null,
            null,
            null,
            null,
            null,
            null,
            null,
            null,
            null,
            null,
            20.0,
            null,
            null,
            null,
            null,
            null,
            null,
            20.0,
            null,
            null,
            null,
            null,
            null,
            null,
            null,
            null,
            null,
            20.0,
            null,
            null,
            null,
            null,
            null,
            null,
            null,
            20.0,
            null,
            null,
            null,
            null,
            null,
            null,
            null,
            null,
            null,
            null,
            null,
            null,
            null,
            null,
            null
          ]
        ]
      }
    },
    "004": {
      "common": {
        "heads": [
          "MOMENTUM L"
        ],
        "units": [
          "NO-DIM"
        ],
        "data": [
          [
            0.0
          ]
        ]
      },
      "data": {
        "heads": [
          "DATA      1",
          "DATA-ERR  1",
          "DATA      2",
          "DATA-ERR  2"
        ],
        "units": [
          "EV",
          "EV",
          "MILLI-EV",
          "MILLI-EV"
        ],
        "data": [
          [
            7.77,
            104.76,
            164.59,
            255.17,
            274.75,
            351.49,
            382.05,
            446.47,
            502.33,
            527.28,
            577.52,
            719.32
          ],
          [
            0.027,
            0.08,
            0.15,
            0.23,
            0.25,
            0.46,
            0.52,
            0.66,
            0.79,
            0.66,
            0.76,
            0.53
          ],
          [
            17.6,
            0.87,
            1.2,
            14.0,
            13.0,
            0.75,
            21.0,
            7.6,
            4.9,
            5.7,
            15.0,
            39.0
          ],
          [
            2.5,
            0.2,
            0.3,
            3.0,
            3.0,
            0.37,
            3.0,
            1.9,
            1.8,
            1.7,
            3.0,
            8.0
          ]
        ]
      }
    },
    "005": {
      "common": {
        "heads": [
          "MOMENTUM L"
        ],
        "units": [
          "NO-DIM"
        ],
        "data": [
          [
            0.0
          ]
        ]
      },
      "data": {
        "heads": [
          "EN-MIN",
          "EN-MAX",
          "DATA",
          "DATA-ERR"
        ],
        "units": [
          "EV",
          "EV",
          "NO-DIM",
          "NO-DIM"
        ],
        "data": [
          [
            5.894
          ],
          [
            696.63
          ],
          [
            0.00027
          ],
          [
            2.5e-05
          ]
        ]
      }
    },
    "006": {
      "common": {
        "heads": [
          "MOMENTUM L"
        ],
        "units": [
          "NO-DIM"
        ],
        "data": [
          [
            0.0
          ]
        ]
      },
      "data": {
        "heads": [
          "EN-MAX",
          "DATA",
          "DATA-ERR"
        ],
        "units": [
          "EV",
          "EV",
          "EV"
        ],
        "data": [
          [
            100.0
          ],
          [
            2.22
          ],
          [
            0.13
          ]
        ]
      }
    },
    "007": {
      "common": {
        "heads": [
          "MOMENTUM L"
        ],
        "units": [
          "NO-DIM"
        ],
        "data": [
          [
            0.0
          ]
        ]
      },
      "data": {
        "heads": [
          "EN-MIN",
          "EN-MAX",
          "DATA",
          "DATA-ERR"
        ],
        "units": [
          "EV",
          "EV",
          "NO-DIM",
          "NO-DIM"
        ],
        "data": [
          [
            7.77
          ],
          [
            719.32
          ],
          [
            0.00019
          ],
          [
            8e-05
          ]
        ]
      }
    },
    "008": {
      "common": null,
      "data": {
        "heads": [
          "EN",
          "DATA"
        ],
        "units": [
          "EV",
          "B"
        ],
        "data": [
          [
            999.7,
            999.26,
            998.83,
            998.4,
            997.97,
            997.54,
            997.11,
            996.67,
            996.24,
            995.81,
            995.38,
            994.95,
            994.52,
            994.09,
            993.67,
            993.24,
            992.81,
            992.38,
            991.95,
            991.53,
            991.1,
            990.67,
            990.24,
            989.82,
            989.39,
            988.97,
            988.54,
            988.11,
            987.69,
            987.26,
            986.84,
            986.42,
            985.99,
            985.57,
            985.14,
            984.72,
            984.3,
            983.88,
            983.45,
            983.03,
            982.61,
            982.19,
            981.77,
            981.35,
            980.92,
            980.5,
            980.08,
            979.66,
            979.24,
            978.82,
            978.41,
            977.99,
            977.57,
            977.15,
            976.73,
            976.31,
            975.9,
            975.48,
            975.06,
            974.65,
            974.23,
            973.81,
            973.4,
            972.98,
            972.57,
            972.15,
            971.74,
            971.32,
            970.91,
            970.49,
            970.08,
            969.67,
            969.25,
            968.84,
            968.43,
            968.01,
            967.6,
            967.19,
            966.78,
            966.37,
            965.96,
            965.54,
            965.13,
            964.72,
            964.31,
            963.9,
            963.49,
            963.08,
            962.68,
            962.27,
            961.86,
            961.45,
            961.04,
            960.63,
            960.23,
            959.82,
            959.41,
            959.01,
            958.6,
            958.19,
            957.79,
            957.38,
            956.98,
            956.57,
            956.17,
            955.76,
            955.36,
            954.95,
            954.55,
            954.14,
            953.74,
            953.34,
            952.94,
            952.53,
            952.13,
            951.73,
            951.33,
            950.92,
            950.52,
            950.12,
            949.72,
            949.32,
            948.92,
            948.52,
            948.12,
            947.72,
            947.32,
            946.92,
            946.52,
            946.13,
            945.73,
            945.33,
            944.93,
            944.53,
            944.14,
            943.74,
            943.34,
            942.95,
            942.55,
            942.15,
            941.76,
            941.36,
            940.97,
            940.57,
            940.18,
            939.78,
            939.39,
            938.99,
            938.6,
            938.21,
            937.81,
            937.42,
            937.03,
            936.63,
            936.24,
            935.85,
            935.46,
            935.07,
            934.68,
            934.28,
            933.89,
            933.5,
            933.11,
            932.72,
            932.33,
            931.94,
            931.55,
            931.16,
            930.78,
            930.39,
            930.0,
            929.61,
            929.22,
            928.83,
            928.45,
            928.06,
            927.67,
            927.29,
            926.9,
            926.51,
            926.13,
            925.74,
            925.36,
            924.97,
            924.59,
            924.2,
            923.82,
            923.43,
            923.05,
            922.66,
            922.28,
            921.9,
            921.51,
            921.13,
            920.75,
            920.37,
            919.98,
            919.6,
            919.22,
            918.84,
            918.46,
            918.08,
            917.7,
            917.32,
            916.94,
            916.56,
            916.18,
            915.8,
            915.42,
            915.04,
            914.66,
            914.28,
            913.9,
            913.52,
            913.15,
            912.77,
            912.39,
            912.01,
            911.64,
            911.26,
            910.88,
            910.51,
            910.13,
            909.75,
            909.38,
            909.0,
            908.63,
            908.25,
            907.88,
            907.51,
            907.13,
            906.76,
            906.38,
            906.01,
            905.64,
            905.26,
            904.89,
            904.52,
            904.15,
            903.77,
            903.4,
            903.03,
            902.66,
            902.29,
            901.92,
            901.55,
            901.18,
            900.81,
            900.44,
            900.07,
            899.7,
            899.33,
            898.96,
            898.59,
            898.22,
            897.85,
            897.48,
            897.11,
            896.75,
            896.38,
            896.01,
            895.65,
            895.28,
            894.91,
            894.55,
            894.18,
            893.81,
            893.45,
            893.08,
            892.72,
            892.35,
            891.99,
            891.62,
            891.26,
            890.89,
            890.53,
            890.17,
            889.8,
            889.44,
            889.08,
            888.71,
            888.35,
            887.99,
            887.63,
            887.26,
            886.9,
            886.54,
            886.18,
            885.82,
            885.46,
            885.1,
            884.74,
            884.38,
            884.02,
            883.66,
            883.3,
            882.94,
            882.58,
            882.22,
            881.86,
            881.5,
            881.14,
            880.79,
            880.43,
            880.07,
            879.71,
            879.36,
            879.0,
            878.64,
            878.29,
            877.93,
            877.57,
            877.22,
            876.86,
            876.51,
            876.15,
            875.8,
            875.44,
            875.09,
            874.73,
            874.38,
            874.03,
            873.67,
            873.32,
            872.97,
            872.61,
            872.26,
            871.91,
            871.55,
            871.2,
            870.85,
            870.5,
            870.15,
            869.8,
            869.44,
            869.09,
            868.74,
            868.39,
            868.04,
            867.69,
            867.34,
            866.99,
            866.64,
            866.29,
            865.95,
            865.6,
            865.25,
            864.9,
            864.55,
            864.2,
            863.86,
            863.51,
            863.16,
            862.81,
            862.47,
            862.12,
            861.77,
            861.43,
            861.08,
            860.74,
            860.39,
            860.04,
            859.7,
            859.35,
            859.01,
            858.66,
            858.32,
            857.98,
            857.63,
            857.29,
            856.94,
            856.6,
            856.26,
            855.92,
            855.57,
            855.23,
            854.89,
            854.55,
            854.2,
            853.86,
            853.52,
            853.18,
            852.84,
            852.5,
            852.16,
            851.82,
            851.48,
            851.14,
            850.8,
            850.46,
            850.12,
            849.78,
            849.44,
            849.1,
            848.76,
            848.42,
            848.08,
            847.75,
            847.41,
            847.07,
            846.73,
            846.4,
            846.06,
            845.72,
            845.39,
            845.05,
            844.71,
            844.38,
            844.04,
            843.71,
            843.37,
            843.03,
            842.7,
            842.36,
            842.03,
            841.7,
            841.36,
            841.03,
            840.69,
            840.36,
            840.03,
            839.69,
            839.36,
            839.03,
            838.7,
            838.36,
            838.03,
            837.7,
            837.37,
            837.03,
            836.7,
            836.37,
            836.04,
            835.71,
            835.38,
            835.05,
            834.72,
            834.39,
            834.06,
            833.73,
            833.4,
            833.07,
            832.74,
            832.41,
            832.08,
            831.75,
            831.43,
            831.1,
            830.77,
            830.44,
            830.12,
            829.79,
            829.46,
            829.13,
            828.81,
            828.48,
            828.15,
            827.83,
            827.5,
            827.18,
            826.85,
            826.52,
            826.2,
            825.87,
            825.55,
            825.23,
            824.9,
            824.58,
            824.25,
            823.93,
            823.6,
            823.28,
            822.96,
            822.63,
            822.31,
            821.99,
            821.67,
            821.34,
            821.02,
            820.7,
            820.38,
            820.06,
            819.74,
            819.41,
            819.09,
            818.77,
            818.29,
            817.65,
            817.01,
            816.37,
            815.73,
            815.1,
            814.46,
            813.82,
            813.19,
            812.55,
            811.92,
            811.29,
            810.65,
            810.02,
            809.39,
            808.76,
            808.13,
            807.5,
            806.87,
            806.25,
            805.62,
            804.99,
            804.37,
            803.75,
            803.12,
            802.5,
            801.88,
            801.26,
            800.63,
            800.01,
            799.4,
            798.78,
            798.16,
            797.54,
            796.93,
            796.31,
            795.7,
            795.08,
            794.47,
            793.85,
            793.24,
            792.63,
            792.02,
            791.41,
            790.8,
            790.19,
            789.58,
            788.98,
            788.37,
            787.77,
            787.16,
            786.56,
            785.95,
            785.35,
            784.75,
            784.15,
            783.54,
            782.94,
            782.34,
            781.75,
            781.15,
            780.55,
            779.95,
            779.36,
            778.76,
            778.17,
            777.57,
            776.98,
            776.39,
            775.79,
            775.2,
            774.61,
            774.02,
            773.43,
            772.84,
            772.26,
            771.67,
            771.08,
            770.5,
            769.91,
            769.33,
            768.74,
            768.16,
            767.58,
            766.99,
            766.41,
            765.83,
            765.25,
            764.67,
            764.09,
            763.52,
            762.94,
            762.36,
            761.79,
            761.21,
            760.64,
            760.06,
            759.49,
            758.92,
            758.34,
            757.77,
            757.2,
            756.63,
            756.06,
            755.49,
            754.92,
            754.36,
            753.79,
            753.22,
            752.66,
            752.09,
            751.53,
            750.96,
            750.4,
            749.84,
            749.28,
            748.72,
            748.15,
            747.59,
            747.04,
            746.48,
            745.92,
            745.36,
            744.8,
            744.25,
            743.69,
            743.14,
            742.58,
            742.03,
            741.48,
            740.92,
            740.37,
            739.82,
            739.27,
            738.72,
            738.17,
            737.62,
            737.07,
            736.52,
            735.98,
            735.43,
            734.89,
            734.34,
            733.8,
            733.25,
            732.71,
            732.17,
            731.62,
            731.08,
            730.54,
            730.0,
            729.46,
            728.92,
            728.38,
            727.84,
            727.31,
            726.77,
            726.23,
            725.7,
            725.16,
            724.63,
            724.1,
            723.56,
            723.03,
            722.5,
            721.97,
            721.44,
            720.9,
            720.38,
            719.85,
            719.32,
            718.79,
            718.26,
            717.74,
            717.21,
            716.68,
            716.16,
            715.63,
            715.11,
            714.59,
            714.06,
            713.54,
            713.02,
            712.5,
            711.98,
            711.46,
            710.94,
            710.42,
            709.9,
            709.38,
            708.87,
            708.35,
            707.83,
            707.32,
            706.8,
            706.29,
            705.78,
            705.26,
            704.75,
            704.24,
            703.73,
            703.22,
            702.71,
            702.2,
            701.69,
            701.18,
            700.67,
            700.16,
            699.66,
            699.15,
            698.64,
            698.14,
            697.63,
            697.13,
            696.63,
            696.12,
            695.62,
            695.12,
            694.62,
            694.11,
            693.61,
            693.11,
            692.61,
            692.12,
            691.62,
            691.12,
            690.62,
            690.13,
            689.63,
            689.13,
            688.64,
            688.14,
            687.65,
            687.16,
            686.66,
            686.17,
            685.68,
            685.19,
            684.7,
            684.21,
            683.72,
            683.23,
            682.74,
            682.25,
            681.76,
            681.28,
            680.79,
            680.3,
            679.82,
            679.33,
            678.85,
            678.36,
            677.88,
            677.4,
            676.91,
            676.43,
            675.95,
            675.47,
            674.99,
            674.51,
            674.03,
            673.55,
            673.07,
            672.6,
            672.12,
            671.64,
            671.16,
            670.69,
            670.21,
            669.74,
            669.26,
            668.79,
            668.32,
            667.84,
            667.37,
            666.9,
            666.43,
            665.96,
            665.49,
            665.02,
            664.55,
            664.08,
            663.61,
            663.14,
            662.68,
            662.21,
            661.74,
            661.28,
            660.81,
            660.35,
            659.88,
            659.42,
            658.95,
            658.49,
            658.03,
            657.57,
            657.11,
            656.64,
            656.18,
            655.72,
            655.26,
            654.81,
            654.35,
            653.89,
            653.43,
            652.97,
            652.52,
            652.06,
            651.61,
            651.15,
            650.7,
            650.24,
            649.79,
            649.33,
            648.88,
            648.43,
            647.98,
            647.53,
            647.07,
            646.62,
            646.17,
            645.72,
            645.28,
            644.83,
            644.38,
            643.93,
            643.48,
            643.04,
            642.59,
            642.15,
            641.7,
            641.26,
            640.81,
            640.37,
            639.92,
            639.48,
            639.04,
            638.6,
            638.15,
            637.71,
            637.27,
            636.83,
            636.39,
            635.95,
            635.51,
            635.07,
            634.64,
            634.2,
            633.76,
            633.33,
            632.89,
            632.45,
            632.02,
            631.58,
            631.15,
            630.72,
            630.28,
            629.85,
            629.42,
            628.98,
            628.55,
            628.12,
            627.69,
            627.26,
            626.83,
            626.4,
            625.97,
            625.54,
            625.11,
            624.69,
            624.26,
            623.83,
            623.41,
            622.98,
            622.55,
            622.13,
            621.7,
            621.28,
            620.86,
            620.43,
            620.01,
            619.59,
            619.17,
            618.74,
            618.32,
            617.9,
            617.48,
            617.06,
            616.64,
            616.22,
            615.8,
            615.39,
            614.97,
            614.55,
            614.13,
            613.72,
            613.3,
            612.89,
            612.47,
            612.06,
            611.64,
            611.23,
            610.81,
            610.4,
            609.99,
            609.57,
            609.16,
            608.75,
            608.34,
            607.93,
            607.52,
            607.11,
            606.7,
            606.29,
            605.88,
            605.47,
            605.07,
            604.66,
            604.25,
            603.85,
            603.44,
            603.03,
            602.63,
            602.22,
            601.82,
            601.42,
            601.01,
            600.61,
            600.21,
            599.8,
            599.4,
            599.0,
            598.6,
            598.2,
            597.8,
            597.4,
            597.0,
            596.6,
            596.2,
            595.8,
            595.4,
            595.01,
            594.61,
            594.21,
            593.82,
            593.42,
            593.02,
            592.63,
            592.23,
            591.84,
            591.44,
            591.05,
            590.66,
            590.26,
            589.87,
            589.48,
            589.09,
            588.7,
            588.31,
            587.92,
            587.53,
            587.14,
            586.75,
            586.36,
            585.97,
            585.58,
            585.19,
            584.81,
            584.42,
            584.03,
            583.65,
            583.26,
            582.87,
            582.49,
            582.1,
            581.72,
            581.34,
            580.95,
            580.57,
            580.19,
            579.8,
            579.42,
            579.04,
            578.66,
            578.28,
            577.9,
            577.52,
            577.14,
            576.76,
            576.38,
            576.0,
            575.62,
            575.24,
            574.87,
            574.49,
            574.11,
            573.74,
            573.36,
            572.98,
            572.61,
            572.23,
            571.86,
            571.48,
            571.11,
            570.74,
            570.36,
            569.99,
            569.62,
            569.25,
            568.87,
            568.5,
            568.13,
            567.76,
            567.39,
            567.02,
            566.65,
            566.28,
            565.91,
            565.55,
            565.18,
            564.81,
            564.44,
            564.07,
            563.71,
            563.34,
            562.98,
            562.61,
            562.25,
            561.88,
            561.52,
            561.15,
            560.79,
            560.42,
            560.06,
            559.7,
            559.34,
            558.97,
            558.61,
            558.25,
            557.89,
            557.53,
            557.17,
            556.81,
            556.45,
            556.09,
            555.73,
            555.37,
            555.01,
            554.66,
            554.3,
            553.94,
            553.58,
            553.23,
            552.87,
            552.52,
            552.16,
            551.81,
            551.45,
            551.1,
            550.74,
            550.39,
            550.04,
            549.68,
            549.33,
            548.98,
            548.63,
            548.27,
            547.92,
            547.57,
            547.22,
            546.87,
            546.52,
            546.17,
            545.82,
            545.47,
            545.12,
            544.78,
            544.43,
            544.08,
            543.73,
            543.39,
            543.04,
            542.69,
            542.35,
            542.0,
            541.66,
            541.31,
            540.97,
            540.62,
            540.28,
            539.93,
            539.59,
            539.25,
            538.9,
            538.56,
            538.22,
            537.88,
            537.54,
            537.2,
            536.85,
            536.51,
            536.17,
            535.83,
            535.49,
            535.16,
            534.82,
            534.48,
            534.14,
            533.8,
            533.46,
            533.13,
            532.79,
            532.45,
            532.12,
            531.78,
            531.45,
            531.11,
            530.78,
            530.44,
            530.11,
            529.77,
            529.44,
            529.11,
            528.77,
            528.44,
            528.11,
            527.77,
            527.44,
            527.11,
            526.78,
            526.45,
            526.12,
            525.79,
            525.46,
            525.13,
            524.8,
            524.47,
            524.14,
            523.81,
            523.49,
            523.16,
            522.83,
            522.5,
            522.18,
            521.85,
            521.52,
            521.2,
            520.87,
            520.55,
            520.22,
            519.9,
            519.57,
            519.25,
            518.92,
            518.6,
            518.28,
            517.95,
            517.63,
            517.31,
            516.99,
            516.67,
            516.34,
            516.02,
            515.7,
            515.38,
            515.06,
            514.74,
            514.42,
            514.1,
            513.78,
            513.46,
            513.15,
            512.83,
            512.51,
            512.19,
            511.88,
            511.56,
            511.24,
            510.93,
            510.61,
            510.29,
            509.98,
            509.66,
            509.35,
            509.03,
            508.72,
            508.4,
            508.09,
            507.78,
            507.46,
            507.15,
            506.84,
            506.53,
            506.21,
            505.9,
            505.59,
            505.28,
            504.97,
            504.66,
            504.35,
            504.04,
            503.73,
            503.42,
            503.11,
            502.8,
            502.49,
            502.18,
            501.88,
            501.57,
            501.26,
            500.95,
            500.65,
            500.34,
            500.03,
            499.73,
            499.42,
            499.12,
            498.81,
            498.51,
            498.2,
            497.9,
            497.59,
            497.29,
            496.99,
            496.68,
            496.38,
            496.08,
            495.77,
            495.47,
            495.17,
            494.87,
            494.57,
            494.27,
            493.97,
            493.67,
            493.37,
            493.07,
            492.77,
            492.47,
            492.17,
            491.87,
            491.57,
            491.27,
            490.97,
            490.68,
            490.38,
            490.08,
            489.78,
            489.49,
            489.19,
            488.9,
            488.6,
            488.3,
            488.01,
            487.71,
            487.42,
            487.12,
            486.83,
            486.54,
            486.24,
            485.95,
            485.66,
            485.36,
            485.07,
            484.78,
            484.49,
            484.19,
            483.9,
            483.61,
            483.32,
            483.03,
            482.74,
            482.45,
            482.16,
            481.87,
            481.58,
            481.29,
            481.0,
            480.71,
            480.42,
            480.13,
            479.85,
            479.56,
            479.27,
            478.98,
            478.7,
            478.41,
            478.12,
            477.84,
            477.55,
            477.27,
            476.98,
            476.7,
            476.41,
            476.13,
            475.84,
            475.56,
            475.27,
            474.99,
            474.71,
            474.42,
            474.14,
            473.86,
            473.58,
            473.29,
            473.01,
            472.73,
            472.45,
            472.17,
            471.89,
            471.61,
            471.33,
            471.05,
            470.77,
            470.49,
            470.21,
            469.93,
            469.65,
            469.37,
            469.09,
            468.82,
            468.54,
            468.26,
            467.98,
            467.71,
            467.43,
            467.15,
            466.88,
            466.6,
            466.32,
            466.05,
            465.77,
            465.5,
            465.22,
            464.95,
            464.67,
            464.4,
            464.13,
            463.85,
            463.58,
            463.31,
            463.03,
            462.76,
            462.49,
            462.21,
            461.94,
            461.67,
            461.4,
            461.13,
            460.86,
            460.59,
            460.32,
            460.05,
            459.78,
            459.51,
            459.24,
            458.97,
            458.7,
            458.43,
            458.16,
            457.89,
            457.62,
            457.36,
            457.09,
            456.82,
            456.55,
            456.29,
            456.02,
            455.75,
            455.49,
            455.22,
            454.95,
            454.69,
            454.42,
            454.16,
            453.89,
            453.63,
            453.36,
            453.1,
            452.84,
            452.57,
            452.31,
            452.05,
            451.78,
            451.52,
            451.26,
            450.99,
            450.73,
            450.47,
            450.21,
            449.95,
            449.69,
            449.43,
            449.16,
            448.9,
            448.64,
            448.38,
            448.12,
            447.86,
            447.6,
            447.35,
            447.09,
            446.83,
            446.57,
            446.31,
            446.05,
            445.8,
            445.54,
            445.28,
            445.02,
            444.77,
            444.51,
            444.25,
            444.0,
            443.74,
            443.48,
            443.23,
            442.97,
            442.72,
            442.46,
            442.21,
            441.95,
            441.7,
            441.45,
            441.19,
            440.94,
            440.68,
            440.43,
            440.18,
            439.93,
            439.67,
            439.42,
            439.17,
            438.92,
            438.67,
            438.41,
            438.16,
            437.91,
            437.66,
            437.41,
            437.16,
            436.91,
            436.66,
            436.41,
            436.16,
            435.91,
            435.66,
            435.41,
            435.16,
            434.92,
            434.67,
            434.42,
            434.17,
            433.92,
            433.68,
            433.43,
            433.18,
            432.94,
            432.69,
            432.44,
            432.2,
            431.95,
            431.7,
            431.46,
            431.21,
            430.97,
            430.72,
            430.48,
            430.23,
            429.99,
            429.75,
            429.5,
            429.26,
            429.02,
            428.77,
            428.53,
            428.29,
            428.04,
            427.8,
            427.56,
            427.32,
            427.08,
            426.83,
            426.59,
            426.35,
            426.11,
            425.87,
            425.63,
            425.39,
            425.15,
            424.91,
            424.67,
            424.43,
            424.19,
            423.95,
            423.71,
            423.47,
            423.24,
            423.0,
            422.76,
            422.52,
            422.28,
            422.05,
            421.81,
            421.57,
            421.33,
            421.1,
            420.86,
            420.62,
            420.39,
            420.15,
            419.92,
            419.68,
            419.45,
            419.21,
            418.98,
            418.74,
            418.51,
            418.27,
            418.04,
            417.8,
            417.57,
            417.34,
            417.1,
            416.75,
            416.29,
            415.82,
            415.36,
            414.9,
            414.43,
            413.97,
            413.51,
            413.05,
            412.59,
            412.13,
            411.68,
            411.22,
            410.76,
            410.31,
            409.85,
            409.4,
            408.94,
            408.49,
            408.04,
            407.59,
            407.14,
            406.69,
            406.24,
            405.79,
            405.35,
            404.9,
            404.45,
            404.01,
            403.56,
            403.12,
            402.68,
            402.23,
            401.79,
            401.35,
            400.91,
            400.47,
            400.03,
            399.6,
            399.16,
            398.72,
            398.29,
            397.85,
            397.42,
            396.99,
            396.55,
            396.12,
            395.69,
            395.26,
            394.83,
            394.4,
            393.97,
            393.54,
            393.11,
            392.69,
            392.26,
            391.84,
            391.41,
            390.99,
            390.57,
            390.14,
            389.72,
            389.3,
            388.88,
            388.46,
            388.04,
            387.62,
            387.21,
            386.79,
            386.37,
            385.96,
            385.54,
            385.13,
            384.72,
            384.3,
            383.89,
            383.48,
            383.07,
            382.66,
            382.25,
            381.84,
            381.43,
            381.02,
            380.62,
            380.21,
            379.8,
            379.4,
            378.99,
            378.59,
            378.19,
            377.78,
            377.38,
            376.98,
            376.58,
            376.18,
            375.78,
            375.38,
            374.99,
            374.59,
            374.19,
            373.8,
            373.4,
            373.01,
            372.61,
            372.22,
            371.82,
            371.43,
            371.04,
            370.65,
            370.26,
            369.87,
            369.48,
            369.09,
            368.7,
            368.32,
            367.93,
            367.54,
            367.16,
            366.77,
            366.39,
            366.0,
            365.62,
            365.24,
            364.86,
            364.47,
            364.09,
            363.71,
            363.33,
            362.96,
            362.58,
            362.2,
            361.82,
            361.45,
            361.07,
            360.69,
            360.32,
            359.94,
            359.57,
            359.2,
            358.83,
            358.45,
            358.08,
            357.71,
            357.34,
            356.97,
            356.6,
            356.23,
            355.87,
            355.5,
            355.13,
            354.77,
            354.4,
            354.03,
            353.67,
            353.31,
            352.94,
            352.58,
            352.22,
            351.86,
            351.49,
            351.13,
            350.77,
            350.41,
            350.06,
            349.7,
            349.34,
            348.98,
            348.63,
            348.27,
            347.91,
            347.56,
            347.2,
            346.85,
            346.5,
            346.14,
            345.79,
            345.44,
            345.09,
            344.74,
            344.39,
            344.04,
            343.69,
            343.34,
            342.99,
            342.64,
            342.3,
            341.95,
            341.6,
            341.26,
            340.91,
            340.57,
            340.22,
            339.88,
            339.54,
            339.2,
            338.85,
            338.51,
            338.17,
            337.83,
            337.49,
            337.15,
            336.81,
            336.48,
            336.14,
            335.8,
            335.46,
            335.13,
            334.79,
            334.46,
            334.12,
            333.79,
            333.45,
            333.12,
            332.79,
            332.46,
            332.12,
            331.79,
            331.46,
            331.13,
            330.8,
            330.47,
            330.14,
            329.82,
            329.49,
            329.16,
            328.83,
            328.51,
            328.18,
            327.86,
            327.53,
            327.21,
            326.88,
            326.56,
            326.24,
            325.91,
            325.59,
            325.27,
            324.95,
            324.63,
            324.31,
            323.99,
            323.67,
            323.35,
            323.03,
            322.72,
            322.4,
            322.08,
            321.77,
            321.45,
            321.13,
            320.82,
            320.5,
            320.19,
            319.88,
            319.56,
            319.25,
            318.94,
            318.63,
            318.32,
            318.01,
            317.7,
            317.39,
            317.08,
            316.77,
            316.46,
            316.15,
            315.84,
            315.54,
            315.23,
            314.92,
            314.62,
            314.31,
            314.01,
            313.7,
            313.4,
            313.09,
            312.79,
            312.49,
            312.19,
            311.88,
            311.58,
            311.28,
            310.98,
            310.68,
            310.38,
            310.08,
            309.78,
            309.48,
            309.19,
            308.89,
            308.59,
            308.3,
            308.0,
            307.7,
            307.41,
            307.11,
            306.82,
            306.52,
            306.23,
            305.94,
            305.64,
            305.35,
            305.06,
            304.77,
            304.48,
            304.19,
            303.9,
            303.61,
            303.32,
            303.03,
            302.74,
            302.45,
            302.16,
            301.88,
            301.59,
            301.3,
            301.02,
            300.73,
            300.44,
            300.16,
            299.87,
            299.59,
            299.31,
            299.02,
            298.74,
            298.46,
            298.18,
            297.89,
            297.61,
            297.33,
            297.05,
            296.77,
            296.49,
            296.21,
            295.93,
            295.65,
            295.38,
            295.1,
            294.82,
            294.54,
            294.27,
            293.99,
            293.71,
            293.44,
            293.16,
            292.89,
            292.62,
            292.34,
            292.07,
            291.79,
            291.52,
            291.25,
            290.98,
            290.71,
            290.43,
            290.16,
            289.89,
            289.62,
            289.35,
            289.08,
            288.81,
            288.55,
            288.28,
            288.01,
            287.74,
            287.48,
            287.21,
            286.94,
            286.68,
            286.41,
            286.15,
            285.88,
            285.62,
            285.35,
            285.09,
            284.82,
            284.56,
            284.3,
            284.04,
            283.77,
            283.51,
            283.25,
            282.99,
            282.73,
            282.47,
            282.21,
            281.95,
            281.69,
            281.43,
            281.17,
            280.92,
            280.66,
            280.4,
            280.14,
            279.89,
            279.63,
            279.38,
            279.12,
            278.86,
            278.61,
            278.36,
            278.1,
            277.85,
            277.59,
            277.34,
            277.09,
            276.84,
            276.58,
            276.33,
            276.08,
            275.83,
            275.58,
            275.33,
            275.08,
            274.83,
            274.58,
            274.33,
            274.08,
            273.83,
            273.59,
            273.34,
            273.09,
            272.84,
            272.6,
            272.35,
            272.1,
            271.86,
            271.61,
            271.37,
            271.12,
            270.88,
            270.64,
            270.39,
            270.15,
            269.91,
            269.66,
            269.42,
            269.18,
            268.94,
            268.7,
            268.45,
            268.21,
            267.97,
            267.73,
            267.49,
            267.25,
            267.02,
            266.78,
            266.54,
            266.3,
            266.06,
            265.82,
            265.59,
            265.35,
            265.11,
            264.88,
            264.64,
            264.41,
            264.17,
            263.94,
            263.7,
            263.47,
            263.23,
            263.0,
            262.77,
            262.53,
            262.3,
            262.07,
            261.83,
            261.6,
            261.37,
            261.14,
            260.91,
            260.68,
            260.45,
            260.22,
            259.99,
            259.76,
            259.53,
            259.3,
            259.07,
            258.84,
            258.62,
            258.39,
            258.16,
            257.93,
            257.71,
            257.48,
            257.26,
            257.03,
            256.8,
            256.58,
            256.35,
            256.13,
            255.9,
            255.68,
            255.46,
            255.23,
            255.01,
            254.79,
            254.56,
            254.34,
            254.12,
            253.9,
            253.68,
            253.46,
            253.24,
            253.01,
            252.79,
            252.57,
            252.36,
            252.14,
            251.92,
            251.7,
            251.48,
            251.26,
            251.04,
            250.83,
            250.61,
            250.39,
            250.17,
            249.96,
            249.74,
            249.53,
            249.31,
            249.09,
            248.88,
            248.66,
            248.45,
            248.23,
            248.02,
            247.81,
            247.59,
            247.38,
            247.17,
            246.95,
            246.74,
            246.53,
            246.32,
            246.11,
            245.9,
            245.68,
            245.47,
            245.26,
            245.05,
            244.84,
            244.63,
            244.42,
            244.21,
            244.01,
            243.8,
            243.59,
            243.38,
            243.17,
            242.97,
            242.76,
            242.55,
            242.34,
            242.14,
            241.93,
            241.73,
            241.52,
            241.31,
            241.11,
            240.9,
            240.7,
            240.5,
            240.29,
            240.09,
            239.88,
            239.68,
            239.48,
            239.27,
            239.07,
            238.87,
            238.67,
            238.47,
            238.26,
            238.06,
            237.86,
            237.66,
            237.46,
            237.26,
            237.06,
            236.86,
            236.66,
            236.46,
            236.26,
            236.06,
            235.87,
            235.67,
            235.47,
            235.27,
            235.07,
            234.88,
            234.68,
            234.48,
            234.29,
            234.09,
            233.89,
            233.7,
            233.5,
            233.31,
            233.11,
            232.92,
            232.72,
            232.53,
            232.34,
            232.14,
            231.95,
            231.75,
            231.56,
            231.37,
            231.18,
            230.98,
            230.79,
            230.6,
            230.41,
            230.22,
            230.03,
            229.83,
            229.64,
            229.45,
            229.26,
            229.07,
            228.88,
            228.69,
            228.5,
            228.32,
            228.13,
            227.94,
            227.75,
            227.56,
            227.37,
            227.19,
            227.0,
            226.81,
            226.62,
            226.44,
            226.25,
            226.06,
            225.88,
            225.69,
            225.51,
            225.32,
            225.14,
            224.95,
            224.77,
            224.58,
            224.4,
            224.21,
            224.03,
            223.85,
            223.66,
            223.48,
            223.3,
            223.12,
            222.93,
            222.75,
            222.57,
            222.39,
            222.21,
            222.02,
            221.84,
            221.66,
            221.48,
            221.3,
            221.12,
            220.94,
            220.76,
            220.58,
            220.4,
            220.22,
            220.04,
            219.87,
            219.69,
            219.51,
            219.33,
            219.15,
            218.98,
            218.8,
            218.62,
            218.44,
            218.27,
            218.09,
            217.92,
            217.74,
            217.56,
            217.39,
            217.21,
            217.04,
            216.86,
            216.69,
            216.51,
            216.34,
            216.16,
            215.99,
            215.82,
            215.64,
            215.47,
            215.3,
            215.12,
            214.95,
            214.78,
            214.61,
            214.43,
            214.26,
            214.09,
            213.92,
            213.75,
            213.58,
            213.41,
            213.24,
            213.07,
            212.89,
            212.72,
            212.56,
            212.39,
            212.22,
            212.05,
            211.88,
            211.71,
            211.54,
            211.37,
            211.2,
            211.04,
            210.87,
            210.7,
            210.53,
            210.37,
            210.2,
            210.03,
            209.87,
            209.7,
            209.53,
            209.37,
            209.2,
            209.04,
            208.87,
            208.7,
            208.54,
            208.37,
            208.21,
            208.05,
            207.88,
            207.72,
            207.55,
            207.39,
            207.23,
            207.06,
            206.9,
            206.74,
            206.57,
            206.41,
            206.25,
            206.09,
            205.93,
            205.76,
            205.6,
            205.44,
            205.28,
            205.12,
            204.96,
            204.8,
            204.64,
            204.48,
            204.32,
            204.16,
            204.0,
            203.84,
            203.68,
            203.52,
            203.36,
            203.2,
            203.04,
            202.89,
            202.73,
            202.57,
            202.41,
            202.25,
            202.1,
            201.94,
            201.78,
            201.62,
            201.47,
            201.31,
            201.16,
            201.0,
            200.84,
            200.69,
            200.53,
            200.38,
            200.22,
            200.07,
            199.91,
            199.76,
            199.6,
            199.45,
            199.29,
            199.14,
            198.99,
            198.83,
            198.68,
            198.53,
            198.37,
            198.22,
            198.07,
            197.91,
            197.76,
            197.61,
            197.46,
            197.31,
            197.15,
            197.0,
            196.85,
            196.7,
            196.55,
            196.4,
            196.25,
            196.1,
            195.95,
            195.8,
            195.65,
            195.5,
            195.35,
            195.2,
            195.05,
            194.9,
            194.75,
            194.6,
            194.45,
            194.3,
            194.16,
            194.01,
            193.86,
            193.71,
            193.57,
            193.42,
            193.27,
            193.12,
            192.98,
            192.83,
            192.68,
            192.54,
            192.39,
            192.24,
            192.1,
            191.95,
            191.81,
            191.66,
            191.52,
            191.37,
            191.23,
            191.08,
            190.94,
            190.79,
            190.65,
            190.5,
            190.36,
            190.22,
            190.07,
            189.93,
            189.79,
            189.64,
            189.5,
            189.36,
            189.22,
            189.07,
            188.93,
            188.79,
            188.65,
            188.5,
            188.36,
            188.22,
            188.08,
            187.94,
            187.8,
            187.66,
            187.52,
            187.38,
            187.24,
            187.1,
            186.96,
            186.82,
            186.68,
            186.54,
            186.4,
            186.26,
            186.12,
            185.98,
            185.84,
            185.7,
            185.56,
            185.42,
            185.29,
            185.15,
            185.01,
            184.87,
            184.74,
            184.6,
            184.46,
            184.32,
            184.19,
            184.05,
            183.91,
            183.78,
            183.64,
            183.5,
            183.37,
            183.23,
            183.1,
            182.96,
            182.83,
            182.69,
            182.55,
            182.42,
            182.29,
            182.15,
            182.02,
            181.88,
            181.75,
            181.61,
            181.48,
            181.35,
            181.21,
            181.08,
            180.94,
            180.81,
            180.68,
            180.55,
            180.41,
            180.28,
            180.15,
            180.02,
            179.88,
            179.75,
            179.62,
            179.49,
            179.36,
            179.22,
            179.09,
            178.96,
            178.83,
            178.7,
            178.57,
            178.44,
            178.31,
            178.18,
            178.05,
            177.92,
            177.79,
            177.66,
            177.53,
            177.4,
            177.27,
            177.14,
            177.01,
            176.88,
            176.75,
            176.62,
            176.5,
            176.37,
            176.24,
            176.11,
            175.98,
            175.86,
            175.73,
            175.6,
            175.47,
            175.35,
            175.22,
            175.09,
            174.97,
            174.84,
            174.71,
            174.59,
            174.46,
            174.33,
            174.21,
            174.08,
            173.96,
            173.83,
            173.7,
            173.58,
            173.45,
            173.33,
            173.2,
            173.08,
            172.95,
            172.83,
            172.71,
            172.58,
            172.46,
            172.33,
            172.21,
            172.09,
            171.96,
            171.84,
            171.72,
            171.59,
            171.47,
            171.35,
            171.22,
            171.1,
            170.98,
            170.86,
            170.73,
            170.61,
            170.49,
            170.37,
            170.25,
            170.13,
            170.0,
            169.88,
            169.76,
            169.64,
            169.52,
            169.4,
            169.28,
            169.16,
            169.04,
            168.92,
            168.8,
            168.68,
            168.5,
            168.26,
            168.02,
            167.78,
            167.54,
            167.3,
            167.07,
            166.83,
            166.6,
            166.36,
            166.13,
            165.89,
            165.66,
            165.42,
            165.19,
            164.96,
            164.73,
            164.5,
            164.27,
            164.04,
            163.81,
            163.58,
            163.35,
            163.12,
            162.89,
            162.66,
            162.44,
            162.21,
            161.98,
            161.76,
            161.53,
            161.31,
            161.08,
            160.86,
            160.64,
            160.41,
            160.19,
            159.97,
            159.75,
            159.53,
            159.31,
            159.09,
            158.87,
            158.65,
            158.43,
            158.21,
            157.99,
            157.78,
            157.56,
            157.34,
            157.13,
            156.91,
            156.7,
            156.48,
            156.27,
            156.05,
            155.84,
            155.63,
            155.42,
            155.2,
            154.99,
            154.78,
            154.57,
            154.36,
            154.15,
            153.94,
            153.73,
            153.52,
            153.32,
            153.11,
            152.9,
            152.69,
            152.49,
            152.28,
            152.08,
            151.87,
            151.67,
            151.46,
            151.26,
            151.05,
            150.85,
            150.65,
            150.45,
            150.24,
            150.04,
            149.84,
            149.64,
            149.44,
            149.24,
            149.04,
            148.84,
            148.64,
            148.44,
            148.25,
            148.05,
            147.85,
            147.66,
            147.46,
            147.26,
            147.07,
            146.87,
            146.68,
            146.48,
            146.29,
            146.1,
            145.9,
            145.71,
            145.52,
            145.32,
            145.13,
            144.94,
            144.75,
            144.56,
            144.37,
            144.18,
            143.99,
            143.8,
            143.61,
            143.42,
            143.24,
            143.05,
            142.86,
            142.68,
            142.49,
            142.3,
            142.12,
            141.93,
            141.75,
            141.56,
            141.38,
            141.19,
            141.01,
            140.83,
            140.64,
            140.46,
            140.28,
            140.1,
            139.92,
            139.73,
            139.55,
            139.37,
            139.19,
            139.01,
            138.83,
            138.66,
            138.48,
            138.3,
            138.12,
            137.94,
            137.77,
            137.59,
            137.41,
            137.24,
            137.06,
            136.88,
            136.71,
            136.53,
            136.36,
            136.19,
            136.01,
            135.84,
            135.66,
            135.49,
            135.32,
            135.15,
            134.98,
            134.8,
            134.63,
            134.46,
            134.29,
            134.12,
            133.95,
            133.78,
            133.61,
            133.44,
            133.27,
            133.11,
            132.94,
            132.77,
            132.6,
            132.44,
            132.27,
            132.1,
            131.94,
            131.77,
            131.6,
            131.44,
            131.27,
            131.11,
            130.95,
            130.78,
            130.62,
            130.45,
            130.29,
            130.13,
            129.97,
            129.8,
            129.64,
            129.48,
            129.32,
            129.16,
            129.0,
            128.84,
            128.68,
            128.52,
            128.36,
            128.2,
            128.04,
            127.88,
            127.72,
            127.57,
            127.41,
            127.25,
            127.09,
            126.94,
            126.78,
            126.62,
            126.47,
            126.31,
            126.16,
            126.0,
            125.85,
            125.69,
            125.54,
            125.38,
            125.23,
            125.08,
            124.92,
            124.77,
            124.62,
            124.47,
            124.32,
            124.16,
            124.01,
            123.86,
            123.71,
            123.56,
            123.41,
            123.26,
            123.11,
            122.96,
            122.81,
            122.66,
            122.51,
            122.36,
            122.22,
            122.07,
            121.92,
            121.77,
            121.63,
            121.48,
            121.33,
            121.19,
            121.04,
            120.9,
            120.75,
            120.61,
            120.46,
            120.32,
            120.17,
            120.03,
            119.88,
            119.74,
            119.6,
            119.45,
            119.31,
            119.17,
            119.02,
            118.88,
            118.74,
            118.6,
            118.46,
            118.32,
            118.18,
            118.04,
            117.9,
            117.76,
            117.62,
            117.48,
            117.34,
            117.2,
            117.06,
            116.92,
            116.78,
            116.64,
            116.51,
            116.37,
            116.23,
            116.09,
            115.96,
            115.82,
            115.68,
            115.55,
            115.41,
            115.28,
            115.14,
            115.01,
            114.87,
            114.74,
            114.6,
            114.47,
            114.33,
            114.2,
            114.07,
            113.93,
            113.8,
            113.67,
            113.53,
            113.4,
            113.27,
            113.14,
            113.01,
            112.87,
            112.74,
            112.61,
            112.48,
            112.35,
            112.22,
            112.09,
            111.96,
            111.83,
            111.7,
            111.57,
            111.44,
            111.31,
            111.19,
            111.06,
            110.93,
            110.8,
            110.67,
            110.55,
            110.42,
            110.29,
            110.17,
            110.04,
            109.91,
            109.79,
            109.66,
            109.53,
            109.41,
            109.28,
            109.16,
            109.03,
            108.91,
            108.79,
            108.66,
            108.54,
            108.41,
            108.29,
            108.17,
            108.04,
            107.92,
            107.8,
            107.68,
            107.55,
            107.43,
            107.31,
            107.19,
            107.07,
            106.94,
            106.82,
            106.7,
            106.58,
            106.46,
            106.34,
            106.22,
            106.1,
            105.98,
            105.86,
            105.74,
            105.62,
            105.51,
            105.39,
            105.27,
            105.15,
            105.03,
            104.91,
            104.8,
            104.68,
            104.56,
            104.45,
            104.33,
            104.21,
            104.1,
            103.98,
            103.86,
            103.75,
            103.63,
            103.52,
            103.4,
            103.29,
            103.17,
            103.06,
            102.94,
            102.83,
            102.71,
            102.6,
            102.49,
            102.37,
            102.26,
            102.15,
            102.03,
            101.92,
            101.81,
            101.7,
            101.58,
            101.47,
            101.36,
            101.25,
            101.14,
            101.02,
            100.91,
            100.8,
            100.69,
            100.58,
            100.47,
            100.36,
            100.25,
            100.14,
            100.03,
            99.92,
            99.81,
            99.7,
            99.59,
            99.49,
            99.38,
            99.27,
            99.16,
            99.05,
            98.94,
            98.84,
            98.73,
            98.62,
            98.51,
            98.41,
            98.3,
            98.19,
            98.09,
            97.98,
            97.87,
            97.77,
            97.66,
            97.56,
            97.45,
            97.35,
            97.24,
            97.14,
            97.03,
            96.93,
            96.82,
            96.72,
            96.61,
            96.51,
            96.41,
            96.3,
            96.2,
            96.1,
            95.99,
            95.89,
            95.79,
            95.69,
            95.58,
            95.48,
            95.38,
            95.28,
            95.17,
            95.07,
            94.97,
            94.87,
            94.77,
            94.67,
            94.57,
            94.47,
            94.37,
            94.27,
            94.17,
            94.07,
            93.97,
            93.87,
            93.77,
            93.67,
            93.57,
            93.47,
            93.37,
            93.27,
            93.17,
            93.07,
            92.98,
            92.88,
            92.78,
            92.68,
            92.58,
            92.49,
            92.39,
            92.29,
            92.2,
            92.1,
            92.0,
            91.91,
            91.81,
            91.71,
            91.62,
            91.52,
            91.42,
            91.33,
            91.23,
            91.14,
            91.04,
            90.95,
            90.85,
            90.76,
            90.66,
            90.57,
            90.47,
            90.38,
            90.29,
            90.19,
            90.1,
            90.01,
            89.91,
            89.82,
            89.73,
            89.63,
            89.54,
            89.45,
            89.35,
            89.26,
            89.17,
            89.08,
            88.99,
            88.89,
            88.8,
            88.71,
            88.62,
            88.53,
            88.44,
            88.34,
            88.25,
            88.16,
            88.07,
            87.98,
            87.89,
            87.8,
            87.71,
            87.62,
            87.53,
            87.44,
            87.35,
            87.26,
            87.17,
            87.09,
            87.0,
            86.91,
            86.82,
            86.73,
            86.64,
            86.55,
            86.47,
            86.38,
            86.29,
            86.2,
            86.11,
            86.03,
            85.94,
            85.85,
            85.77,
            85.68,
            85.59,
            85.5,
            85.42,
            85.33,
            85.25,
            85.16,
            85.07,
            84.99,
            84.9,
            84.82,
            84.73,
            84.65,
            84.56,
            84.48,
            84.39,
            84.31,
            84.22,
            84.14,
            84.05,
            83.97,
            83.88,
            83.8,
            83.71,
            83.63,
            83.55,
            83.46,
            83.38,
            83.3,
            83.21,
            83.13,
            83.05,
            82.96,
            82.88,
            82.8,
            82.72,
            82.63,
            82.55,
            82.47,
            82.39,
            82.31,
            82.22,
            82.14,
            82.06,
            81.98,
            81.9,
            81.82,
            81.74,
            81.66,
            81.58,
            81.49,
            81.41,
            81.33,
            81.25,
            81.17,
            81.09,
            81.01,
            80.93,
            80.85,
            80.77,
            80.69,
            80.62,
            80.54,
            80.46,
            80.38,
            80.3,
            80.22,
            80.14,
            80.06,
            79.99,
            79.91,
            79.83,
            79.75,
            79.67,
            79.59,
            79.52,
            79.44,
            79.36,
            79.28,
            79.21,
            79.13,
            79.05,
            78.98,
            78.9,
            78.82,
            78.75,
            78.67,
            78.59,
            78.52,
            78.44,
            78.36,
            78.29,
            78.21,
            78.14,
            78.06,
            77.99,
            77.91,
            77.84,
            77.76,
            77.69,
            77.61,
            77.54,
            77.46,
            77.39,
            77.31,
            77.24,
            77.16,
            77.09,
            77.01,
            76.94,
            76.87,
            76.79,
            76.72,
            76.65,
            76.57,
            76.5,
            76.43,
            76.35,
            76.28,
            76.21,
            76.13,
            76.06,
            75.99,
            75.92,
            75.84,
            75.77,
            75.7,
            75.63,
            75.56,
            75.48,
            75.41,
            75.34,
            75.27,
            75.2,
            75.13,
            75.05,
            74.98,
            74.91,
            74.84,
            74.77,
            74.7,
            74.63,
            74.56,
            74.49,
            74.42,
            74.35,
            74.28,
            74.21,
            74.14,
            74.07,
            74.0,
            73.93,
            73.86,
            73.79,
            73.72,
            73.65,
            73.58,
            73.51,
            73.44,
            73.37,
            73.3,
            73.24,
            73.17,
            73.1,
            73.03,
            72.96,
            72.89,
            72.83,
            72.76,
            72.69,
            72.62,
            72.55,
            72.49,
            72.42,
            72.35,
            72.28,
            72.22,
            72.15,
            72.08,
            72.02,
            71.95,
            71.88,
            71.82,
            71.75,
            71.68,
            71.62,
            71.55,
            71.48,
            71.42,
            71.35,
            71.29,
            71.22,
            71.15,
            71.09,
            71.02,
            70.96,
            70.89,
            70.83,
            70.76,
            70.7,
            70.63,
            70.57,
            70.5,
            70.44,
            70.37,
            70.31,
            70.24,
            70.18,
            70.11,
            70.05,
            69.99,
            69.92,
            69.86,
            69.79,
            69.73,
            69.67,
            69.6,
            69.54,
            69.47,
            69.41,
            69.35,
            69.28,
            69.22,
            69.16,
            69.1,
            69.03,
            68.97,
            68.91,
            68.84,
            68.78,
            68.72,
            68.66,
            68.6,
            68.53,
            68.47,
            68.41,
            68.35,
            68.29,
            68.22,
            68.16,
            68.1,
            68.04,
            67.98,
            67.92,
            67.85,
            67.79,
            67.73,
            67.67,
            67.61,
            67.55,
            67.49,
            67.43,
            67.37,
            67.31,
            67.25,
            67.19,
            67.13,
            67.07,
            67.01,
            66.95,
            66.89,
            66.83,
            66.77,
            66.71,
            66.65,
            66.59,
            66.53,
            66.47,
            66.41,
            66.35,
            66.29,
            66.23,
            66.17,
            66.11,
            66.05,
            66.0,
            65.94,
            65.88,
            65.82,
            65.76,
            65.7,
            65.64,
            65.59,
            65.53,
            65.47,
            65.41,
            65.35,
            65.3,
            65.24,
            65.18,
            65.12,
            65.07,
            65.01,
            64.95,
            64.89,
            64.84,
            64.78,
            64.72,
            64.67,
            64.61,
            64.55,
            64.5,
            64.44,
            64.38,
            64.33,
            64.27,
            64.21,
            64.16,
            64.1,
            64.04,
            63.99,
            63.93,
            63.88,
            63.82,
            63.76,
            63.71,
            63.65,
            63.6,
            63.54,
            63.49,
            63.43,
            63.38,
            63.32,
            63.26,
            63.21,
            63.15,
            63.1,
            63.05,
            62.99,
            62.94,
            62.88,
            62.83,
            62.77,
            62.72,
            62.66,
            62.61,
            62.55,
            62.5,
            62.45,
            62.39,
            62.34,
            62.28,
            62.23,
            62.18,
            62.12,
            62.07,
            62.02,
            61.96,
            61.91,
            61.86,
            61.8,
            61.75,
            61.7,
            61.64,
            61.59,
            61.54,
            61.48,
            61.43,
            61.38,
            61.33,
            61.27,
            61.22,
            61.17,
            61.12,
            61.06,
            61.01,
            60.96,
            60.91,
            60.86,
            60.8,
            60.75,
            60.7,
            60.65,
            60.6,
            60.54,
            60.49,
            60.44,
            60.39,
            60.34,
            60.29,
            60.24,
            60.19,
            60.13,
            60.08,
            60.03,
            59.98,
            59.93,
            59.88,
            59.83,
            59.78,
            59.73,
            59.68,
            59.63,
            59.58,
            59.53,
            59.48,
            59.43,
            59.38,
            59.33,
            59.28,
            59.23,
            59.18,
            59.13,
            59.08,
            59.03,
            58.98,
            58.93,
            58.88,
            58.83,
            58.78,
            58.73,
            58.68,
            58.63,
            58.58,
            58.53,
            58.48,
            58.43,
            58.39,
            58.34,
            58.29,
            58.24,
            58.19,
            58.14,
            58.09,
            58.05,
            58.0,
            57.95,
            57.9,
            57.85,
            57.8,
            57.76,
            57.71,
            57.66,
            57.61,
            57.56,
            57.52,
            57.47,
            57.42,
            57.37,
            57.33,
            57.28,
            57.23,
            57.18,
            57.14,
            57.09,
            57.04,
            56.99,
            56.95,
            56.9,
            56.85,
            56.81,
            56.76,
            56.71,
            56.67,
            56.62,
            56.57,
            56.53,
            56.48,
            56.41,
            56.32,
            56.22,
            56.13,
            56.04,
            55.95,
            55.86,
            55.77,
            55.67,
            55.58,
            55.49,
            55.4,
            55.31,
            55.22,
            55.13,
            55.04,
            54.95,
            54.86,
            54.78,
            54.69,
            54.6,
            54.51,
            54.42,
            54.33,
            54.25,
            54.16,
            54.07,
            53.98,
            53.9,
            53.81,
            53.72,
            53.64,
            53.55,
            53.47,
            53.38,
            53.3,
            53.21,
            53.13,
            53.04,
            52.96,
            52.87,
            52.79,
            52.7,
            52.62,
            52.54,
            52.45,
            52.37,
            52.29,
            52.21,
            52.12,
            52.04,
            51.96,
            51.88,
            51.79,
            51.71,
            51.63,
            51.55,
            51.47,
            51.39,
            51.31,
            51.23,
            51.15,
            51.07,
            50.99,
            50.91,
            50.83,
            50.75,
            50.67,
            50.59,
            50.51,
            50.43,
            50.36,
            50.28,
            50.2,
            50.12,
            50.04,
            49.97,
            49.89,
            49.81,
            49.73,
            49.66,
            49.58,
            49.51,
            49.43,
            49.35,
            49.28,
            49.2,
            49.13,
            49.05,
            48.98,
            48.9,
            48.83,
            48.75,
            48.68,
            48.6,
            48.53,
            48.45,
            48.38,
            48.31,
            48.23,
            48.16,
            48.09,
            48.01,
            47.94,
            47.87,
            47.8,
            47.72,
            47.65,
            47.58,
            47.51,
            47.44,
            47.36,
            47.29,
            47.22,
            47.15,
            47.08,
            47.01,
            46.94,
            46.87,
            46.8,
            46.73,
            46.66,
            46.59,
            46.52,
            46.45,
            46.38,
            46.31,
            46.24,
            46.17,
            46.1,
            46.04,
            45.97,
            45.9,
            45.83,
            45.76,
            45.7,
            45.63,
            45.56,
            45.49,
            45.43,
            45.36,
            45.29,
            45.23,
            45.16,
            45.09,
            45.03,
            44.96,
            44.89,
            44.83,
            44.76,
            44.7,
            44.63,
            44.57,
            44.5,
            44.44,
            44.37,
            44.31,
            44.24,
            44.18,
            44.11,
            44.05,
            43.99,
            43.92,
            43.86,
            43.8,
            43.73,
            43.67,
            43.61,
            43.54,
            43.48,
            43.42,
            43.35,
            43.29,
            43.23,
            43.17,
            43.11,
            43.04,
            42.98,
            42.92,
            42.86,
            42.8,
            42.74,
            42.67,
            42.61,
            42.55,
            42.49,
            42.43,
            42.37,
            42.31,
            42.25,
            42.19,
            42.13,
            42.07,
            42.01,
            41.95,
            41.89,
            41.83,
            41.77,
            41.71,
            41.65,
            41.6,
            41.54,
            41.48,
            41.42,
            41.36,
            41.3,
            41.25,
            41.19,
            41.13,
            41.07,
            41.01,
            40.96,
            40.9,
            40.84,
            40.79,
            40.73,
            40.67,
            40.61,
            40.56,
            40.5,
            40.45,
            40.39,
            40.33,
            40.28,
            40.22,
            40.16,
            40.11,
            40.05,
            40.0,
            39.94,
            39.89,
            39.83,
            39.78,
            39.72,
            39.67,
            39.61,
            39.56,
            39.5,
            39.45,
            39.4,
            39.34,
            39.29,
            39.23,
            39.18,
            39.13,
            39.07,
            39.02,
            38.97,
            38.91,
            38.86,
            38.81,
            38.75,
            38.7,
            38.65,
            38.6,
            38.54,
            38.49,
            38.44,
            38.39,
            38.33,
            38.28,
            38.23,
            38.18,
            38.13,
            38.08,
            38.02,
            37.97,
            37.92,
            37.87,
            37.82,
            37.77,
            37.72,
            37.67,
            37.62,
            37.57,
            37.52,
            37.47,
            37.42,
            37.36,
            37.31,
            37.27,
            37.22,
            37.17,
            37.12,
            37.07,
            37.02,
            36.97,
            36.92,
            36.87,
            36.82,
            36.77,
            36.72,
            36.67,
            36.63,
            36.58,
            36.53,
            36.48,
            36.43,
            36.38,
            36.34,
            36.29,
            36.24,
            36.19,
            36.14,
            36.1,
            36.05,
            36.0,
            35.96,
            35.91,
            35.86,
            35.81,
            35.77,
            35.72,
            35.67,
            35.63,
            35.58,
            35.53,
            35.49,
            35.44,
            35.4,
            35.35,
            35.3,
            35.26,
            35.21,
            35.17,
            35.12,
            35.07,
            35.03,
            34.98,
            34.94,
            34.89,
            34.85,
            34.8,
            34.76,
            34.71,
            34.67,
            34.62,
            34.58,
            34.53,
            34.49,
            34.45,
            34.4,
            34.36,
            34.31,
            34.27,
            34.23,
            34.18,
            34.14,
            34.09,
            34.05,
            34.01,
            33.96,
            33.92,
            33.88,
            33.83,
            33.79,
            33.75,
            33.71,
            33.66,
            33.62,
            33.58,
            33.53,
            33.49,
            33.45,
            33.41,
            33.36,
            33.32,
            33.28,
            33.24,
            33.2,
            33.15,
            33.11,
            33.07,
            33.03,
            32.99,
            32.95,
            32.91,
            32.86,
            32.82,
            32.78,
            32.74,
            32.7,
            32.66,
            32.62,
            32.58,
            32.54,
            32.5,
            32.46,
            32.41,
            32.37,
            32.33,
            32.29,
            32.25,
            32.21,
            32.17,
            32.13,
            32.09,
            32.05,
            32.01,
            31.97,
            31.93,
            31.9,
            31.86,
            31.82,
            31.78,
            31.74,
            31.7,
            31.66,
            31.62,
            31.58,
            31.54,
            31.5,
            31.47,
            31.43,
            31.39,
            31.35,
            31.31,
            31.27,
            31.24,
            31.2,
            31.16,
            31.12,
            31.08,
            31.04,
            31.01,
            30.97,
            30.93,
            30.89,
            30.86,
            30.82,
            30.78,
            30.74,
            30.71,
            30.67,
            30.63,
            30.59,
            30.56,
            30.52,
            30.48,
            30.45,
            30.41,
            30.37,
            30.34,
            30.3,
            30.26,
            30.23,
            30.19,
            30.15,
            30.12,
            30.08,
            30.05,
            30.01,
            29.97,
            29.94,
            29.9,
            29.87,
            29.83,
            29.8,
            29.76,
            29.72,
            29.69,
            29.65,
            29.62,
            29.58,
            29.55,
            29.51,
            29.48,
            29.44,
            29.41,
            29.37,
            29.34,
            29.3,
            29.27,
            29.23,
            29.2,
            29.16,
            29.13,
            29.1,
            29.06,
            29.03,
            28.99,
            28.96,
            28.92,
            28.89,
            28.86,
            28.82,
            28.79,
            28.75,
            28.72,
            28.69,
            28.65,
            28.62,
            28.59,
            28.55,
            28.52,
            28.49,
            28.45,
            28.42,
            28.39,
            28.35,
            28.32,
            28.29,
            28.25,
            28.22,
            28.19,
            28.16,
            28.12,
            28.09,
            28.06,
            28.03,
            27.99,
            27.96
          ],
          [
            46.24,
            69.57,
            -25.02,
            22.26,
            72.07,
            24.9,
            68.02,
            40.75,
            116.51,
            53.51,
            123.12,
            115.57,
            104.52,
            -61.76,
            65.54,
            -0.73,
            -62.67,
            85.33,
            -17.43,
            43.72,
            53.49,
            126.95,
            108.54,
            16.13,
            -34.78,
            25.31,
            129.04,
            11.66,
            11.36,
            24.09,
            -2.11,
            7.21,
            112.61,
            26.15,
            52.56,
            65.9,
            31.84,
            -7.42,
            85.82,
            -1.65,
            27.31,
            -2.25,
            95.18,
            26.4,
            -22.17,
            12.67,
            101.07,
            51.96,
            86.25,
            -14.23,
            -66.88,
            -27.42,
            43.67,
            98.9,
            -59.05,
            142.2,
            160.81,
            25.44,
            18.54,
            14.95,
            100.32,
            147.85,
            47.38,
            60.74,
            84.85,
            46.46,
            -0.17,
            62.97,
            138.15,
            8.66,
            1.85,
            163.78,
            11.02,
            64.59,
            194.14,
            110.14,
            43.11,
            116.83,
            138.78,
            42.2,
            -1.16,
            -30.15,
            51.51,
            37.6,
            89.35,
            96.21,
            182.45,
            60.32,
            98.89,
            116.8,
            87.51,
            76.57,
            45.06,
            72.44,
            41.05,
            33.97,
            133.21,
            -9.49,
            26.34,
            155.05,
            15.75,
            66.5,
            335.7,
            34.93,
            184.72,
            54.85,
            -15.39,
            50.8,
            47.05,
            33.12,
            63.77,
            49.59,
            239.47,
            166.18,
            73.1,
            -1.9,
            93.93,
            4.05,
            107.89,
            61.04,
            152.39,
            211.68,
            81.32,
            102.7,
            113.42,
            -21.05,
            -30.91,
            -5.47,
            149.92,
            44.16,
            -111.16,
            -35.56,
            81.87,
            53.33,
            -10.81,
            155.48,
            -17.88,
            73.22,
            55.31,
            -12.29,
            -69.29,
            -9.63,
            23.23,
            82.13,
            164.41,
            -7.55,
            70.5,
            25.12,
            91.46,
            73.15,
            7.45,
            154.44,
            79.41,
            153.83,
            64.55,
            60.72,
            145.17,
            160.41,
            103.07,
            18.17,
            140.1,
            83.9,
            72.81,
            -12.88,
            97.58,
            127.13,
            -52.14,
            137.96,
            22.26,
            39.08,
            66.84,
            4.55,
            109.96,
            109.66,
            87.25,
            174.67,
            162.45,
            166.1,
            177.76,
            353.51,
            145.57,
            70.69,
            221.74,
            -41.31,
            106.34,
            17.22,
            51.45,
            94.32,
            83.04,
            93.72,
            68.0,
            96.81,
            74.6,
            185.27,
            42.07,
            73.7,
            106.46,
            55.24,
            37.4,
            212.28,
            -68.26,
            36.52,
            12.21,
            93.21,
            107.79,
            38.81,
            92.31,
            77.36,
            106.59,
            283.14,
            40.83,
            -0.53,
            54.33,
            207.97,
            82.57,
            104.5,
            186.38,
            21.44,
            7.52,
            34.68,
            110.52,
            13.43,
            26.86,
            -0.68,
            94.34,
            124.25,
            -69.54,
            -66.7,
            49.6,
            81.77,
            198.59,
            88.55,
            185.6,
            66.02,
            125.39,
            192.92,
            117.12,
            192.31,
            143.63,
            104.84,
            154.89,
            282.22,
            10.7,
            146.07,
            88.39,
            -3.73,
            161.07,
            5.84,
            72.49,
            46.97,
            -38.23,
            -57.81,
            14.64,
            49.36,
            -93.02,
            92.58,
            211.66,
            202.91,
            153.46,
            240.92,
            43.75,
            83.36,
            -25.32,
            136.14,
            192.41,
            247.87,
            212.86,
            238.46,
            306.22,
            199.26,
            103.2,
            133.75,
            80.12,
            11.98,
            -15.47,
            249.23,
            82.65,
            135.89,
            42.05,
            17.15,
            111.69,
            242.97,
            118.8,
            103.16,
            118.21,
            344.2,
            121.49,
            236.73,
            53.49,
            97.59,
            60.16,
            155.61,
            66.88,
            -30.91,
            9.36,
            107.26,
            51.15,
            47.26,
            -19.02,
            106.08,
            -29.6,
            -90.9,
            -13.43,
            112.59,
            -40.64,
            192.6,
            85.06,
            84.76,
            12.25,
            118.58,
            114.4,
            -52.42,
            75.83,
            90.55,
            194.12,
            160.62,
            -37.47,
            27.2,
            104.33,
            26.62,
            179.74,
            134.7,
            91.7,
            102.87,
            133.82,
            125.61,
            194.76,
            264.85,
            71.17,
            23.74,
            78.06,
            59.21,
            19.35,
            119.33,
            213.79,
            80.36,
            235.11,
            64.85,
            110.07,
            -6.98,
            75.15,
            -60.9,
            23.56,
            16.2,
            19.44,
            -35.74,
            77.17,
            135.02,
            46.99,
            35.84,
            83.55,
            79.48,
            86.77,
            13.35,
            -38.28,
            101.23,
            52.0,
            132.09,
            73.7,
            155.78,
            111.44,
            268.3,
            272.63,
            171.14,
            87.1,
            38.48,
            94.19,
            45.19,
            144.98,
            89.48,
            164.92,
            47.7,
            100.17,
            0.66,
            -43.9,
            -50.81,
            35.34,
            118.3,
            -18.03,
            -4.52,
            78.68,
            191.17,
            221.31,
            -72.66,
            280.0,
            21.98,
            115.68,
            172.44,
            35.55,
            46.22,
            68.25,
            23.86,
            133.92,
            -1.5,
            63.35,
            37.19,
            59.04,
            55.03,
            173.42,
            207.47,
            115.59,
            31.85,
            -4.04,
            20.46,
            75.59,
            98.41,
            19.61,
            200.75,
            235.91,
            231.11,
            300.78,
            345.09,
            234.72,
            152.33,
            123.51,
            83.92,
            110.97,
            98.87,
            34.32,
            82.78,
            146.17,
            51.92,
            36.85,
            97.15,
            92.96,
            -54.8,
            80.78,
            80.49,
            38.83,
            123.21,
            23.66,
            -8.67,
            163.49,
            233.02,
            -23.41,
            89.82,
            66.47,
            81.5,
            -14.12,
            326.47,
            39.13,
            140.09,
            53.45,
            45.69,
            64.2,
            -108.92,
            19.16,
            -27.03,
            117.75,
            78.08,
            70.12,
            -24.68,
            191.91,
            144.88,
            -15.08,
            61.09,
            111.45,
            221.43,
            155.96,
            44.91,
            78.83,
            82.42,
            101.76,
            3.62,
            158.43,
            65.88,
            116.62,
            157.57,
            92.16,
            91.88,
            34.4,
            103.18,
            203.65,
            44.72,
            118.38,
            172.26,
            -65.51,
            -0.27,
            -14.72,
            13.57,
            16.93,
            2.2,
            20.02,
            68.47,
            -40.68,
            -23.66,
            116.85,
            92.27,
            72.15,
            -2.77,
            3.85,
            107.95,
            142.24,
            69.34,
            47.75,
            134.28,
            189.23,
            162.63,
            297.58,
            121.7,
            67.36,
            295.8,
            292.74,
            277.49,
            222.74,
            32.24,
            35.43,
            82.99,
            28.71,
            122.21,
            -31.99,
            78.78,
            132.96,
            -26.6,
            75.14,
            78.52,
            126.54,
            128.06,
            142.18,
            112.48,
            128.45,
            3.11,
            28.48,
            48.8,
            173.21,
            115.28,
            146.15,
            169.32,
            218.08,
            22.77,
            76.12,
            198.13,
            138.52,
            168.1,
            216.95,
            283.26,
            206.63,
            215.23,
            261.92,
            177.93,
            184.04,
            100.21,
            143.56,
            109.36,
            188.49,
            154.81,
            286.81,
            520.38,
            549.04,
            325.88,
            178.39,
            50.82,
            163.98,
            110.03,
            11.03,
            98.61,
            204.43,
            313.43,
            410.72,
            205.04,
            108.24,
            -0.19,
            14.21,
            2.45,
            150.72,
            124.37,
            156.16,
            92.01,
            -5.8,
            86.82,
            6.15,
            32.21,
            -22.6,
            6.42,
            102.63,
            39.73,
            4.81,
            115.65,
            53.81,
            125.16,
            184.09,
            266.69,
            276.11,
            127.24,
            48.59,
            -31.33,
            -31.86,
            48.95,
            70.39,
            71.88,
            176.26,
            91.28,
            130.92,
            37.86,
            121.22,
            11.68,
            139.59,
            71.62,
            91.63,
            40.53,
            182.11,
            119.54,
            97.81,
            60.29,
            73.96,
            -30.96,
            76.98,
            30.38,
            2.87,
            33.23,
            131.94,
            95.04,
            25.77,
            56.95,
            101.85,
            6.8,
            69.57,
            25.07,
            116.76,
            257.69,
            53.22,
            102.31,
            -13.94,
            67.87,
            139.71,
            81.25,
            44.01,
            78.11,
            3.78,
            148.12,
            125.46,
            105.46,
            77.51,
            130.42,
            64.06,
            53.34,
            -26.86,
            30.24,
            165.86,
            167.61,
            133.27,
            304.64,
            441.11,
            361.02,
            246.28,
            46.03,
            143.4,
            174.8,
            126.76,
            66.42,
            191.91,
            293.74,
            282.69,
            128.5,
            302.67,
            480.68,
            813.13,
            463.53,
            261.29,
            145.42,
            129.2,
            158.01,
            91.09,
            138.77,
            56.46,
            23.52,
            108.39,
            132.15,
            109.51,
            242.55,
            415.71,
            277.37,
            145.27,
            142.47,
            10.93,
            20.32,
            -5.75,
            74.69,
            65.75,
            82.13,
            31.79,
            21.21,
            34.8,
            34.28,
            141.16,
            170.68,
            93.5,
            92.97,
            77.42,
            120.49,
            91.4,
            95.22,
            50.13,
            92.0,
            -22.69,
            58.99,
            64.78,
            105.2,
            197.16,
            256.82,
            304.09,
            136.72,
            57.46,
            -48.13,
            -61.67,
            121.03,
            202.65,
            400.69,
            246.78,
            184.04,
            34.66,
            30.04,
            -12.47,
            37.24,
            63.93,
            42.42,
            13.28,
            10.76,
            155.52,
            89.35,
            154.47,
            146.94,
            123.43,
            208.39,
            296.4,
            207.32,
            179.85,
            155.49,
            91.28,
            104.05,
            45.17,
            70.15,
            17.3,
            62.68,
            64.31,
            -8.34,
            25.5,
            169.25,
            18.34,
            96.66,
            123.19,
            62.88,
            122.16,
            38.55,
            112.02,
            116.04,
            28.7,
            64.12,
            48.65,
            18.93,
            136.48,
            145.32,
            171.04,
            33.49,
            -7.92,
            120.02,
            154.56,
            142.21,
            132.34,
            93.08,
            103.8,
            159.13,
            87.09,
            136.77,
            27.94,
            19.13,
            33.22,
            1.72,
            30.12,
            4.8,
            144.94,
            73.68,
            51.45,
            -1.27,
            39.76,
            107.49,
            73.35,
            92.87,
            103.68,
            126.21,
            166.21,
            136.92,
            65.93,
            92.08,
            140.12,
            64.42,
            122.64,
            172.39,
            214.61,
            183.72,
            244.95,
            57.04,
            47.87,
            36.64,
            135.01,
            115.74,
            50.19,
            107.78,
            104.98,
            4.28,
            43.88,
            129.08,
            116.84,
            64.19,
            270.02,
            300.2,
            233.93,
            225.51,
            79.49,
            163.55,
            71.78,
            -32.09,
            100.22,
            151.74,
            85.52,
            129.1,
            130.97,
            159.48,
            257.22,
            203.72,
            126.57,
            100.31,
            30.83,
            36.79,
            131.7,
            25.07,
            88.63,
            83.57,
            56.17,
            155.84,
            57.39,
            -15.52,
            43.22,
            131.96,
            100.77,
            30.89,
            43.43,
            40.76,
            64.58,
            86.74,
            93.15,
            8.74,
            92.15,
            84.76,
            188.38,
            334.41,
            395.7,
            176.67,
            126.85,
            91.0,
            145.27,
            115.8,
            220.83,
            207.12,
            170.61,
            -2.27,
            110.94,
            171.63,
            54.74,
            65.49,
            -43.74,
            101.38,
            119.88,
            50.07,
            47.36,
            55.8,
            117.9,
            194.81,
            207.41,
            3.65,
            31.21,
            198.01,
            17.19,
            -43.89,
            -19.76,
            64.47,
            59.44,
            119.68,
            63.01,
            -24.23,
            238.98,
            68.38,
            84.05,
            199.84,
            201.98,
            75.63,
            157.13,
            90.96,
            199.97,
            125.89,
            125.4,
            29.85,
            47.18,
            74.05,
            82.86,
            98.87,
            -2.91,
            177.19,
            123.91,
            48.3,
            108.38,
            204.07,
            264.1,
            292.44,
            254.6,
            188.85,
            60.85,
            53.52,
            114.15,
            94.43,
            -9.57,
            2.83,
            74.14,
            48.36,
            96.78,
            45.14,
            110.25,
            85.81,
            75.92,
            103.96,
            110.74,
            165.32,
            190.97,
            109.28,
            -24.66,
            74.89,
            6.57,
            95.28,
            52.59,
            130.99,
            171.26,
            37.5,
            10.3,
            64.05,
            56.62,
            176.65,
            155.4,
            104.95,
            154.43,
            26.95,
            56.07,
            -24.16,
            104.97,
            119.23,
            87.1,
            67.67,
            205.96,
            29.92,
            129.28,
            143.97,
            115.86,
            69.51,
            -1.3,
            40.71,
            123.88,
            46.65,
            110.51,
            107.57,
            175.95,
            191.47,
            215.51,
            143.27,
            120.04,
            139.75,
            152.11,
            44.23,
            64.75,
            122.65,
            119.66,
            82.39,
            235.77,
            398.87,
            609.08,
            460.56,
            360.97,
            170.34,
            194.0,
            190.8,
            223.38,
            155.27,
            197.5,
            194.29,
            182.97,
            153.34,
            109.53,
            60.52,
            131.27,
            31.62,
            -35.3,
            206.87,
            16.56,
            72.0,
            -43.52,
            130.49,
            72.99,
            124.44,
            64.87,
            123.49,
            45.03,
            65.85,
            87.16,
            53.03,
            -6.9,
            28.78,
            145.91,
            114.63,
            74.61,
            86.32,
            -42.31,
            44.6,
            87.37,
            36.66,
            252.65,
            3.68,
            123.09,
            77.69,
            57.92,
            64.65,
            -0.87,
            26.0,
            122.82,
            36.7,
            13.14,
            38.12,
            66.22,
            167.73,
            186.29,
            64.82,
            158.26,
            63.9,
            82.95,
            46.22,
            84.49,
            40.57,
            150.1,
            14.05,
            125.59,
            36.37,
            91.64,
            -12.69,
            58.81,
            85.27,
            79.85,
            31.27,
            103.94,
            126.56,
            100.48,
            53.18,
            119.98,
            276.52,
            435.24,
            441.99,
            306.08,
            117.65,
            209.3,
            103.91,
            58.71,
            -0.53,
            107.62,
            107.16,
            148.54,
            71.09,
            139.62,
            -23.53,
            -8.24,
            28.29,
            20.79,
            156.02,
            24.58,
            77.32,
            54.74,
            122.27,
            108.84,
            -14.56,
            72.54,
            -26.68,
            149.12,
            78.64,
            172.73,
            153.12,
            72.28,
            84.33,
            59.03,
            140.5,
            98.19,
            33.47,
            174.53,
            104.51,
            48.98,
            70.67,
            72.71,
            4.86,
            23.18,
            138.55,
            176.37,
            119.06,
            82.53,
            110.29,
            -32.46,
            -10.25,
            75.67,
            87.86,
            82.33,
            104.95,
            29.7,
            86.05,
            132.56,
            0.03,
            59.57,
            81.69,
            41.49,
            38.61,
            62.73,
            181.57,
            178.29,
            161.07,
            235.46,
            223.08,
            419.32,
            526.89,
            361.74,
            276.0,
            88.57,
            28.4,
            52.37,
            231.24,
            312.0,
            298.56,
            163.42,
            114.07,
            34.97,
            66.71,
            96.97,
            180.83,
            130.5,
            108.71,
            129.6,
            54.0,
            48.59,
            144.55,
            114.39,
            82.57,
            41.87,
            105.1,
            23.9,
            106.83,
            160.76,
            95.43,
            113.44,
            46.17,
            125.95,
            -0.69,
            54.81,
            143.68,
            46.44,
            107.63,
            193.27,
            161.35,
            80.11,
            212.46,
            260.79,
            223.5,
            193.43,
            207.66,
            155.36,
            31.69,
            182.89,
            30.81,
            -8.14,
            64.96,
            183.96,
            113.8,
            107.99,
            188.4,
            112.45,
            435.92,
            244.02,
            284.64,
            183.21,
            10.93,
            8.08,
            150.48,
            82.41,
            11.6,
            78.92,
            5.9,
            131.56,
            82.81,
            48.96,
            66.36,
            152.05,
            157.26,
            99.08,
            145.09,
            92.87,
            193.04,
            86.7,
            146.1,
            209.55,
            67.12,
            -3.01,
            217.24,
            141.06,
            219.37,
            231.16,
            173.9,
            109.0,
            103.15,
            146.81,
            42.3,
            180.39,
            18.98,
            53.71,
            76.59,
            81.41,
            -7.09,
            9.45,
            13.92,
            -15.55,
            125.14,
            32.49,
            88.95,
            4.42,
            21.21,
            84.97,
            3.13,
            73.53,
            4.71,
            143.56,
            26.09,
            117.52,
            162.26,
            173.46,
            239.74,
            284.36,
            445.37,
            513.91,
            552.11,
            525.65,
            252.86,
            211.78,
            132.17,
            -9.01,
            55.7,
            55.27,
            26.73,
            46.65,
            118.35,
            90.55,
            66.16,
            103.26,
            78.53,
            -46.53,
            85.69,
            -108.36,
            145.88,
            128.39,
            62.7,
            46.64,
            83.09,
            175.75,
            98.47,
            95.31,
            84.04,
            49.24,
            61.88,
            149.68,
            90.42,
            140.17,
            195.77,
            328.99,
            185.81,
            293.68,
            206.23,
            81.99,
            73.5,
            86.54,
            153.56,
            127.26,
            96.15,
            123.56,
            92.55,
            217.74,
            446.16,
            372.85,
            376.08,
            254.22,
            196.96,
            108.86,
            89.1,
            72.42,
            22.31,
            191.7,
            244.6,
            267.03,
            215.1,
            253.0,
            226.82,
            223.21,
            238.71,
            179.08,
            187.74,
            122.54,
            113.61,
            138.9,
            109.94,
            -23.86,
            95.13,
            145.89,
            80.54,
            162.72,
            168.26,
            63.04,
            5.44,
            232.06,
            125.5,
            72.13,
            116.08,
            68.57,
            31.07,
            56.98,
            70.0,
            94.27,
            47.74,
            107.42,
            36.37,
            207.73,
            40.78,
            185.12,
            172.49,
            145.19,
            133.06,
            84.48,
            106.41,
            176.4,
            134.26,
            128.02,
            99.07,
            -91.44,
            120.96,
            123.42,
            80.67,
            172.94,
            203.45,
            107.4,
            309.03,
            503.57,
            428.17,
            502.62,
            493.53,
            331.77,
            150.99,
            135.76,
            162.14,
            220.93,
            8.31,
            -7.38,
            2.36,
            65.29,
            32.67,
            11.38,
            91.73,
            28.79,
            60.47,
            57.33,
            32.82,
            70.16,
            13.66,
            97.25,
            -7.67,
            113.57,
            98.83,
            124.34,
            112.3,
            190.05,
            5.2,
            167.5,
            207.76,
            188.33,
            219.77,
            -42.1,
            94.63,
            52.56,
            41.34,
            170.23,
            95.8,
            118.43,
            293.93,
            265.76,
            393.14,
            285.6,
            254.27,
            320.28,
            280.8,
            494.06,
            255.91,
            140.83,
            85.11,
            179.79,
            148.6,
            243.64,
            327.23,
            256.27,
            180.79,
            79.39,
            173.69,
            118.83,
            198.09,
            129.82,
            82.96,
            108.38,
            -29.84,
            16.12,
            92.7,
            127.3,
            217.33,
            144.48,
            30.05,
            67.99,
            -10.18,
            89.79,
            75.17,
            25.33,
            24.92,
            -17.34,
            149.83,
            128.26,
            133.84,
            251.85,
            318.57,
            303.6,
            442.88,
            302.73,
            373.42,
            273.45,
            542.54,
            231.53,
            150.94,
            175.44,
            168.73,
            382.05,
            409.55,
            218.99,
            163.92,
            141.9,
            90.99,
            217.3,
            359.49,
            281.5,
            167.68,
            63.28,
            129.89,
            179.07,
            135.12,
            70.12,
            187.41,
            206.48,
            222.61,
            228.89,
            283.88,
            141.38,
            128.78,
            1.18,
            55.19,
            49.2,
            74.19,
            117.68,
            228.45,
            128.92,
            338.4,
            334.18,
            352.82,
            167.55,
            270.78,
            291.8,
            120.0,
            150.2,
            191.14,
            68.91,
            148.96,
            170.58,
            84.99,
            75.89,
            84.17,
            75.08,
            -44.22,
            -0.45,
            34.39,
            14.85,
            108.27,
            72.66,
            43.89,
            13.26,
            74.33,
            85.55,
            -14.6,
            87.66,
            38.7,
            188.92,
            225.15,
            51.52,
            207.49,
            251.46,
            216.71,
            117.22,
            -5.32,
            51.94,
            103.95,
            37.09,
            158.62,
            84.74,
            52.18,
            267.4,
            406.86,
            459.27,
            174.76,
            87.28,
            121.1,
            200.26,
            199.43,
            39.36,
            71.53,
            42.01,
            142.66,
            77.92,
            156.92,
            144.97,
            156.9,
            143.35,
            56.46,
            118.31,
            82.69,
            252.47,
            363.05,
            287.11,
            92.97,
            45.18,
            -11.21,
            14.01,
            95.83,
            19.41,
            61.51,
            91.94,
            189.85,
            72.4,
            76.06,
            162.58,
            64.12,
            102.11,
            -3.04,
            155.91,
            95.32,
            -17.47,
            37.59,
            125.71,
            16.24,
            -3.97,
            34.69,
            42.62,
            20.41,
            94.84,
            0.73,
            142.17,
            68.43,
            29.63,
            122.37,
            4.11,
            3.39,
            69.3,
            65.57,
            78.41,
            111.67,
            125.21,
            40.52,
            92.35,
            140.75,
            -0.25,
            82.49,
            108.16,
            -23.16,
            97.31,
            85.74,
            -5.92,
            81.23,
            129.33,
            183.51,
            196.59,
            195.85,
            408.87,
            561.82,
            543.22,
            305.37,
            158.07,
            81.74,
            112.46,
            74.15,
            -31.05,
            71.19,
            70.48,
            33.7,
            143.95,
            90.03,
            376.69,
            595.36,
            547.42,
            777.01,
            444.3,
            490.52,
            324.51,
            130.87,
            8.43,
            22.29,
            24.53,
            32.7,
            63.72,
            165.17,
            178.26,
            116.97,
            146.05,
            122.09,
            48.81,
            12.36,
            90.9,
            80.7,
            112.0,
            203.58,
            348.19,
            220.26,
            150.76,
            -49.87,
            -21.24,
            14.2,
            -14.08,
            33.67,
            31.47,
            23.29,
            76.3,
            23.39,
            71.75,
            137.88,
            83.02,
            -5.87,
            54.91,
            80.93,
            9.64,
            32.9,
            96.53,
            16.48,
            -3.4,
            46.96,
            -14.95,
            56.44,
            171.87,
            297.58,
            259.26,
            123.27,
            62.4,
            33.77,
            56.3,
            77.81,
            78.73,
            43.33,
            21.21,
            16.0,
            85.65,
            -1.78,
            18.48,
            2.79,
            32.37,
            118.58,
            29.46,
            205.5,
            52.97,
            141.44,
            116.81,
            415.72,
            297.33,
            342.78,
            253.87,
            158.28,
            -41.04,
            42.12,
            71.67,
            40.76,
            73.55,
            74.49,
            137.65,
            55.42,
            175.31,
            83.2,
            85.81,
            54.31,
            69.72,
            95.38,
            171.16,
            141.95,
            303.79,
            191.07,
            32.19,
            61.74,
            83.97,
            63.63,
            31.07,
            16.4,
            12.65,
            44.86,
            57.02,
            80.89,
            28.62,
            82.86,
            -9.63,
            31.33,
            11.94,
            14.37,
            89.52,
            68.9,
            73.18,
            27.33,
            50.59,
            118.62,
            140.81,
            273.84,
            194.44,
            178.78,
            141.67,
            140.99,
            145.69,
            75.78,
            323.88,
            587.5,
            947.23,
            686.15,
            289.05,
            164.59,
            64.47,
            87.27,
            179.28,
            214.87,
            464.7,
            627.24,
            551.05,
            216.05,
            113.65,
            128.89,
            -10.71,
            106.41,
            93.62,
            115.59,
            60.18,
            74.6,
            245.74,
            345.49,
            242.35,
            101.1,
            84.9,
            14.95,
            87.01,
            -46.4,
            14.59,
            128.98,
            161.28,
            59.98,
            118.04,
            282.53,
            192.76,
            -5.74,
            35.2,
            -42.35,
            58.76,
            99.28,
            52.43,
            30.32,
            47.79,
            16.06,
            59.89,
            22.85,
            -28.34,
            19.93,
            29.06,
            -3.76,
            8.33,
            109.11,
            150.43,
            100.69,
            166.06,
            1.92,
            -16.11,
            29.82,
            76.43,
            60.34,
            13.19,
            55.64,
            123.58,
            50.97,
            79.49,
            164.53,
            40.63,
            -5.74,
            76.91,
            53.89,
            77.37,
            59.43,
            122.56,
            285.65,
            464.69,
            676.36,
            633.57,
            439.15,
            70.48,
            66.36,
            72.68,
            -16.22,
            73.15,
            19.8,
            22.48,
            0.52,
            54.99,
            135.09,
            10.05,
            -13.28,
            71.54,
            138.14,
            104.19,
            31.82,
            55.07,
            37.32,
            173.35,
            42.86,
            145.0,
            57.09,
            110.04,
            172.08,
            259.93,
            381.21,
            353.9,
            318.09,
            312.84,
            74.86,
            35.92,
            31.89,
            -59.4,
            10.46,
            62.86,
            105.44,
            101.13,
            80.52,
            -14.03,
            13.39,
            75.05,
            17.17,
            66.66,
            185.07,
            139.21,
            41.99,
            113.32,
            79.63,
            52.32,
            51.69,
            45.82,
            34.79,
            5.31,
            131.59,
            31.21,
            13.54,
            94.04,
            -2.78,
            56.66,
            84.82,
            10.44,
            149.77,
            26.25,
            119.57,
            155.75,
            114.53,
            73.18,
            79.83,
            145.36,
            102.61,
            165.89,
            189.61,
            164.63,
            168.01,
            244.91,
            418.98,
            734.12,
            942.68,
            789.54,
            408.48,
            228.08,
            154.98,
            103.92,
            73.57,
            -35.75,
            -11.6,
            1.27,
            49.41,
            18.9,
            -7.31,
            98.97,
            32.78,
            144.13,
            -2.98,
            64.98,
            33.86,
            31.49,
            152.99,
            48.05,
            20.9,
            52.23,
            -7.83,
            27.84,
            111.93,
            103.64,
            -13.62,
            102.41,
            179.41,
            82.27,
            100.57,
            140.94,
            128.43,
            98.73,
            163.33,
            345.02,
            629.39,
            669.95,
            716.06,
            347.44,
            240.73,
            196.55,
            219.63,
            203.86,
            238.23,
            260.15,
            345.46,
            377.9,
            344.19,
            208.76,
            174.13,
            32.28,
            118.17,
            105.82,
            -8.22,
            66.5,
            62.17,
            46.81,
            134.41,
            -18.06,
            43.19,
            22.72,
            79.24,
            61.69,
            163.47,
            254.54,
            452.26,
            357.42,
            241.29,
            96.15,
            115.17,
            89.14,
            113.96,
            66.96,
            106.83,
            108.2,
            107.6,
            191.56,
            441.71,
            435.45,
            557.24,
            306.12,
            160.88,
            162.38,
            126.76,
            110.12,
            -49.18,
            -25.97,
            155.17,
            -23.69,
            81.66,
            106.53,
            72.77,
            127.44,
            43.26,
            86.45,
            30.99,
            58.38,
            42.77,
            21.91,
            -12.69,
            -13.27,
            36.7,
            249.66,
            77.24,
            -19.1,
            -33.58,
            87.17,
            86.58,
            62.73,
            93.28,
            5.84,
            19.79,
            -42.79,
            2.29,
            157.95,
            83.83,
            163.15,
            396.92,
            646.27,
            784.17,
            856.75,
            619.56,
            391.07,
            253.33,
            141.46,
            149.3,
            27.69,
            63.16,
            112.21,
            119.81,
            129.56,
            -36.42,
            24.22,
            51.97,
            -2.62,
            35.6,
            63.74,
            65.11,
            2.35,
            67.85,
            103.15,
            26.5,
            24.05,
            151.46,
            22.9,
            50.79,
            189.06,
            162.05,
            281.72,
            196.26,
            184.47,
            94.72,
            92.12,
            67.6,
            51.4,
            135.91,
            81.76,
            19.2,
            -67.3,
            -16.9,
            71.48,
            93.0,
            8.88,
            32.79,
            120.14,
            64.65,
            31.08,
            114.23,
            105.35,
            84.34,
            195.23,
            118.19,
            58.67,
            94.25,
            73.42,
            43.27,
            92.52,
            55.82,
            -9.42,
            21.79,
            88.19,
            11.2,
            45.13,
            111.29,
            98.23,
            237.85,
            281.48,
            351.37,
            262.86,
            137.64,
            101.02,
            127.88,
            133.76,
            68.62,
            60.04,
            241.64,
            527.61,
            581.06,
            453.73,
            206.01,
            42.79,
            -0.03,
            -8.07,
            33.28,
            142.09,
            55.83,
            158.62,
            142.57,
            86.65,
            179.46,
            127.79,
            213.19,
            24.36,
            96.31,
            11.68,
            88.92,
            88.36,
            73.35,
            21.01,
            22.39,
            59.47,
            29.08,
            9.15,
            65.9,
            -22.14,
            127.97,
            74.46,
            126.84,
            15.46,
            56.46,
            142.74,
            118.08,
            -48.54,
            -79.4,
            14.08,
            102.95,
            -6.21,
            72.45,
            59.58,
            17.15,
            -10.31,
            110.31,
            179.05,
            151.05,
            91.55,
            154.44,
            135.94,
            71.03,
            83.0,
            7.76,
            52.93,
            -29.49,
            161.88,
            156.75,
            98.76,
            119.88,
            53.7,
            138.71,
            140.39,
            229.22,
            201.9,
            99.17,
            142.65,
            91.63,
            67.87,
            266.14,
            374.62,
            534.38,
            820.04,
            997.95,
            958.74,
            875.53,
            465.23,
            300.98,
            313.91,
            232.58,
            101.7,
            180.45,
            151.94,
            45.19,
            134.91,
            75.35,
            23.29,
            126.51,
            6.31,
            98.92,
            51.68,
            102.19,
            -23.04,
            35.67,
            74.68,
            113.2,
            73.59,
            41.69,
            72.5,
            26.33,
            121.6,
            205.41,
            209.77,
            216.63,
            82.07,
            77.23,
            85.3,
            7.97,
            54.42,
            66.53,
            42.93,
            42.39,
            95.11,
            43.39,
            80.96,
            106.72,
            92.94,
            88.02,
            -15.67,
            40.16,
            45.87,
            112.39,
            -56.06,
            35.94,
            -24.69,
            57.91,
            100.76,
            44.2,
            69.11,
            99.14,
            74.5,
            82.65,
            145.31,
            18.28,
            50.97,
            164.92,
            122.37,
            36.78,
            46.73,
            91.54,
            66.98,
            64.29,
            222.73,
            89.39,
            4.33,
            45.11,
            29.92,
            102.85,
            35.11,
            47.22,
            -0.85,
            44.04,
            26.74,
            40.87,
            -6.98,
            107.6,
            32.98,
            299.64,
            42.45,
            56.87,
            89.19,
            118.09,
            211.8,
            271.61,
            538.87,
            578.77,
            492.0,
            438.08,
            234.29,
            254.87,
            -5.28,
            78.91,
            35.08,
            34.56,
            44.67,
            136.24,
            131.0,
            159.07,
            90.85,
            79.13,
            67.54,
            84.77,
            130.16,
            -18.09,
            39.43,
            69.32,
            -43.46,
            92.88,
            103.75,
            85.05,
            137.74,
            106.77,
            37.39,
            -15.19,
            121.45,
            147.07,
            59.16,
            41.23,
            58.11,
            73.09,
            86.05,
            90.06,
            112.56,
            107.39,
            164.23,
            181.11,
            245.53,
            275.05,
            263.47,
            227.92,
            201.31,
            198.22,
            104.99,
            61.35,
            120.35,
            158.41,
            37.87,
            -33.56,
            184.31,
            82.95,
            -35.09,
            28.82,
            234.28,
            239.11,
            402.92,
            529.19,
            253.8,
            174.5,
            122.53,
            98.46,
            93.31,
            54.27,
            -16.8,
            171.35,
            141.1,
            -32.62,
            51.7,
            57.86,
            66.33,
            63.56,
            -31.09,
            5.78,
            117.64,
            86.59,
            -20.82,
            137.82,
            35.55,
            89.16,
            36.73,
            49.49,
            24.79,
            87.11,
            23.77,
            23.27,
            69.47,
            2.92,
            141.93,
            181.71,
            138.43,
            281.03,
            139.86,
            93.65,
            166.33,
            20.37,
            96.82,
            174.98,
            164.26,
            213.21,
            231.59,
            135.22,
            214.32,
            184.78,
            78.7,
            75.87,
            96.44,
            47.47,
            74.35,
            26.44,
            10.65,
            45.45,
            60.82,
            138.96,
            2.17,
            91.86,
            117.75,
            -10.02,
            141.39,
            113.79,
            25.32,
            -1.33,
            78.9,
            87.81,
            36.67,
            68.07,
            81.58,
            134.3,
            80.57,
            47.7,
            -58.02,
            2.32,
            85.63,
            68.69,
            155.95,
            81.76,
            88.37,
            196.22,
            111.47,
            49.53,
            72.19,
            76.38,
            54.92,
            87.23,
            4.58,
            53.42,
            69.18,
            87.61,
            126.15,
            179.47,
            17.03,
            52.74,
            2.81,
            79.84,
            120.64,
            69.39,
            43.36,
            -52.82,
            21.99,
            58.03,
            57.54,
            71.11,
            94.55,
            126.1,
            30.29,
            105.25,
            129.63,
            63.42,
            126.11,
            46.13,
            92.99,
            2.26,
            28.62,
            53.43,
            39.06,
            132.71,
            38.07,
            87.09,
            3.26,
            45.83,
            148.15,
            150.24,
            136.86,
            236.12,
            247.06,
            299.85,
            137.43,
            84.57,
            111.13,
            100.71,
            75.84,
            109.65,
            111.65,
            154.67,
            -32.87,
            80.63,
            127.34,
            -14.8,
            123.81,
            64.24,
            107.7,
            104.71,
            72.36,
            106.22,
            10.73,
            110.25,
            32.63,
            50.84,
            123.96,
            170.57,
            299.3,
            268.5,
            419.67,
            600.08,
            665.46,
            678.66,
            895.36,
            769.65,
            649.69,
            753.36,
            694.53,
            1057.17,
            880.24,
            655.94,
            385.85,
            249.61,
            220.17,
            99.47,
            47.75,
            91.0,
            190.11,
            138.5,
            222.89,
            341.36,
            425.87,
            333.86,
            366.21,
            359.03,
            249.0,
            121.59,
            16.22,
            201.4,
            72.35,
            62.11,
            145.32,
            110.97,
            136.42,
            143.85,
            162.11,
            64.09,
            137.1,
            36.69,
            162.86,
            135.64,
            106.61,
            243.49,
            359.36,
            403.41,
            181.87,
            299.45,
            364.05,
            249.44,
            279.27,
            224.87,
            154.31,
            101.3,
            75.62,
            100.34,
            -22.1,
            76.67,
            176.01,
            90.79,
            60.41,
            -26.69,
            89.35,
            37.17,
            68.36,
            7.9,
            150.23,
            21.01,
            130.51,
            34.32,
            116.15,
            59.38,
            47.41,
            149.23,
            114.94,
            179.04,
            139.59,
            67.33,
            113.74,
            99.75,
            64.5,
            87.56,
            71.38,
            -5.7,
            21.65,
            78.68,
            207.07,
            194.5,
            136.24,
            24.19,
            99.75,
            111.96,
            312.6,
            637.88,
            667.5,
            339.67,
            190.21,
            30.09,
            151.47,
            13.71,
            53.28,
            148.63,
            46.42,
            64.38,
            110.39,
            150.43,
            149.49,
            129.21,
            89.44,
            104.39,
            64.27,
            48.13,
            48.46,
            26.37,
            67.0,
            60.94,
            76.81,
            104.99,
            76.27,
            71.44,
            80.97,
            0.78,
            75.2,
            106.18,
            142.48,
            119.33,
            183.78,
            120.23,
            31.32,
            114.27,
            67.88,
            100.18,
            42.85,
            128.57,
            104.21,
            173.95,
            148.4,
            116.56,
            21.03,
            167.32,
            58.8,
            143.81,
            113.38,
            34.19,
            73.6,
            79.36,
            15.1,
            44.7,
            46.39,
            140.78,
            106.11,
            42.4,
            44.1,
            62.84,
            11.72,
            24.74,
            77.6,
            21.85,
            96.39,
            96.95,
            264.78,
            370.35,
            420.75,
            268.92,
            118.02,
            63.57,
            31.21,
            -18.7,
            21.87,
            44.43,
            1.23,
            18.18,
            2.14,
            15.29,
            22.18,
            95.05,
            248.33,
            260.73,
            141.23,
            87.66,
            60.87,
            -7.58,
            104.86,
            92.8,
            209.55,
            374.73,
            347.8,
            346.98,
            207.9,
            192.92,
            196.81,
            138.12,
            20.77,
            9.6,
            49.69,
            124.64,
            -25.74,
            80.22,
            191.95,
            435.89,
            634.33,
            504.11,
            304.04,
            100.91,
            97.25,
            43.68,
            42.89,
            44.81,
            88.39,
            55.5,
            109.81,
            52.56,
            43.59,
            36.04,
            47.47,
            45.32,
            -22.55,
            42.39,
            193.47,
            191.08,
            369.19,
            422.05,
            302.3,
            189.52,
            52.02,
            121.57,
            64.39,
            34.6,
            17.63,
            93.45,
            81.13,
            59.1,
            14.53,
            27.23,
            -32.68,
            -6.32,
            -20.1,
            118.18,
            5.9,
            82.78,
            240.66,
            161.14,
            84.81,
            45.63,
            -27.53,
            11.23,
            71.62,
            23.25,
            54.41,
            107.4,
            140.11,
            117.9,
            302.29,
            475.15,
            878.04,
            1134.16,
            849.5,
            478.65,
            224.93,
            130.09,
            82.66,
            -57.07,
            39.49,
            5.61,
            82.55,
            19.13,
            52.03,
            64.21,
            67.81,
            -12.38,
            57.61,
            -3.14,
            29.12,
            25.57,
            66.17,
            -10.19,
            58.85,
            63.91,
            61.7,
            -61.69,
            -8.55,
            56.53,
            88.25,
            32.1,
            104.93,
            105.71,
            48.43,
            23.46,
            103.45,
            -41.93,
            46.89,
            161.32,
            108.14,
            -6.0,
            85.26,
            -7.48,
            141.37,
            57.69,
            88.33,
            47.43,
            89.88,
            3.25,
            161.26,
            209.53,
            228.06,
            443.35,
            294.46,
            210.0,
            142.07,
            84.72,
            20.55,
            81.72,
            132.64,
            29.82,
            94.85,
            116.04,
            1.99,
            35.58,
            84.19,
            143.68,
            117.11,
            62.24,
            228.85,
            48.82,
            34.83,
            107.08,
            155.01,
            8.1,
            24.62,
            71.52,
            39.27,
            6.61,
            7.31,
            15.2,
            -2.68,
            56.52,
            0.13,
            10.85,
            108.69,
            34.2,
            66.56,
            79.71,
            55.97,
            -0.65,
            23.22,
            119.71,
            7.24,
            18.13,
            74.64,
            69.27,
            112.83,
            148.43,
            45.72,
            -2.12,
            13.1,
            -4.98,
            65.77,
            -29.08,
            38.4,
            -9.28,
            38.47,
            21.32,
            26.55,
            27.32,
            161.14,
            254.51,
            271.07,
            130.16,
            103.1,
            105.64,
            9.01,
            76.92,
            -8.45,
            32.21,
            89.13,
            58.38,
            87.7,
            126.34,
            19.65,
            77.57,
            7.82,
            44.84,
            101.26,
            41.89,
            18.41,
            66.97,
            119.93,
            125.94,
            198.83,
            203.6,
            210.25,
            159.18,
            183.31,
            188.0,
            146.6,
            28.84,
            88.1,
            47.52,
            42.15,
            71.44,
            82.03,
            133.04,
            -3.16,
            2.1,
            63.14,
            99.86,
            21.15,
            9.83,
            63.54,
            50.12,
            -2.77,
            34.63,
            83.42,
            72.94,
            41.92,
            53.88,
            0.57,
            25.82,
            82.53,
            93.41,
            48.82,
            12.29,
            113.22,
            26.32,
            31.87,
            -2.62,
            14.98,
            58.38,
            93.85,
            -17.36,
            104.27,
            11.54,
            64.66,
            5.57,
            74.76,
            62.6,
            55.42,
            30.79,
            5.21,
            89.63,
            41.43,
            4.7,
            -9.72,
            25.11,
            189.07,
            116.25,
            197.11,
            259.03,
            209.07,
            134.57,
            92.23,
            106.95,
            39.66,
            166.16,
            111.82,
            134.01,
            169.64,
            204.79,
            411.98,
            634.95,
            1062.17,
            1223.22,
            1239.66,
            1304.93,
            765.12,
            563.18,
            285.12,
            237.18,
            165.15,
            94.71,
            114.95,
            12.48,
            48.91,
            125.34,
            114.01,
            61.81,
            114.43,
            200.79,
            143.64,
            219.04,
            170.1,
            98.77,
            122.85,
            95.68,
            100.25,
            55.12,
            51.11,
            45.47,
            131.45,
            -12.09,
            -23.61,
            19.91,
            25.73,
            39.82,
            91.82,
            80.73,
            34.53,
            63.97,
            137.54,
            144.26,
            193.06,
            18.15,
            151.57,
            2.33,
            39.16,
            -11.68,
            69.98,
            42.19,
            11.91,
            40.87,
            140.65,
            36.22,
            130.08,
            194.2,
            460.96,
            629.26,
            710.46,
            706.34,
            692.1,
            452.32,
            307.01,
            120.46,
            94.48,
            90.26,
            24.38,
            57.49,
            21.42,
            -22.89,
            106.74,
            51.45,
            103.62,
            8.29,
            42.67,
            78.41,
            22.86,
            87.76,
            62.43,
            90.04,
            18.6,
            83.37,
            124.65,
            16.66,
            37.88,
            -14.09,
            24.75,
            63.57,
            25.15,
            24.5,
            125.05,
            48.8,
            25.94,
            50.98,
            268.11,
            169.86,
            215.7,
            259.6,
            239.6,
            141.98,
            145.18,
            164.0,
            163.35,
            105.47,
            146.45,
            55.5,
            154.89,
            102.9,
            -9.29,
            63.54,
            108.4,
            32.53,
            56.31,
            20.99,
            56.8,
            33.43,
            82.45,
            54.89,
            70.31,
            112.01,
            83.55,
            90.25,
            119.56,
            157.74,
            -7.86,
            37.51,
            81.56,
            17.23,
            14.89,
            128.5,
            37.84,
            110.04,
            92.52,
            50.07,
            0.93,
            -6.43,
            99.33,
            115.74,
            72.14,
            7.97,
            189.44,
            15.29,
            104.97,
            156.97,
            235.77,
            312.39,
            288.36,
            267.16,
            262.02,
            159.21,
            168.71,
            106.92,
            129.49,
            84.88,
            91.76,
            48.79,
            130.91,
            38.59,
            63.26,
            -44.55,
            101.28,
            46.86,
            171.4,
            122.6,
            91.18,
            58.91,
            211.01,
            72.42,
            68.09,
            27.58,
            108.51,
            115.66,
            111.14,
            44.84,
            119.67,
            58.22,
            185.57,
            22.65,
            203.49,
            57.59,
            180.97,
            247.93,
            315.25,
            450.3,
            248.32,
            415.94,
            437.23,
            570.48,
            714.73,
            908.08,
            1140.3,
            1258.36,
            948.22,
            765.14,
            380.91,
            227.97,
            205.3,
            97.66,
            134.75,
            77.18,
            55.84,
            60.83,
            -11.93,
            123.62,
            178.82,
            -6.78,
            1.4,
            125.19,
            28.87,
            90.33,
            42.33,
            110.74,
            71.17,
            93.74,
            0.1,
            73.17,
            111.68,
            93.27,
            46.77,
            132.08,
            97.35,
            46.83,
            72.77,
            53.13,
            122.94,
            18.61,
            93.72,
            69.75,
            145.2,
            -22.97,
            103.2,
            7.77,
            27.22,
            93.45,
            164.78,
            42.16,
            79.85,
            33.49,
            -43.89,
            2.99,
            11.45,
            74.9,
            151.45,
            20.65,
            65.34,
            112.31,
            -19.03,
            25.67,
            17.68,
            116.04,
            121.6,
            42.04,
            20.85,
            103.47,
            65.2,
            34.0,
            168.77,
            -4.08,
            125.09,
            35.41,
            16.11,
            72.78,
            64.35,
            54.05,
            90.88,
            15.02,
            93.73,
            71.2,
            102.69,
            124.8,
            -34.94,
            9.64,
            41.05,
            34.74,
            71.02,
            96.51,
            32.97,
            130.57,
            78.61,
            -13.37,
            165.4,
            26.25,
            78.26,
            163.63,
            43.63,
            20.13,
            77.92,
            114.18,
            22.16,
            10.28,
            63.61,
            37.62,
            134.49,
            90.02,
            181.6,
            178.76,
            458.78,
            652.54,
            749.92,
            931.03,
            997.91,
            834.51,
            954.49,
            469.81,
            378.39,
            318.29,
            249.48,
            147.35,
            186.99,
            166.08,
            119.71,
            125.54,
            164.33,
            60.21,
            18.53,
            53.07,
            74.62,
            86.33,
            -24.97,
            36.96,
            126.76,
            41.7,
            79.34,
            105.82,
            30.18,
            73.52,
            40.81,
            -4.11,
            164.01,
            13.77,
            64.54,
            -39.69,
            33.43,
            85.41,
            138.29,
            27.8,
            108.96,
            46.44,
            43.87,
            51.31,
            83.48,
            136.47,
            142.53,
            -22.57,
            112.96,
            84.8,
            111.82,
            75.34,
            168.4,
            360.24,
            342.95,
            345.13,
            350.1,
            464.88,
            516.05,
            552.76,
            317.64,
            280.07,
            305.77,
            62.34,
            130.04,
            200.7,
            295.5,
            412.97,
            564.87,
            546.83,
            807.57,
            944.32,
            824.78,
            1014.36,
            634.5,
            328.04,
            258.59,
            210.71,
            195.68,
            117.14,
            34.44,
            -17.14,
            108.87,
            67.68,
            50.53,
            154.22,
            66.0,
            30.53,
            143.39,
            13.43,
            144.55,
            73.73,
            168.84,
            89.69,
            144.58,
            -40.06,
            66.72,
            76.75,
            -45.47,
            112.54,
            43.67,
            12.73,
            106.45,
            31.77,
            37.35,
            8.53,
            126.52,
            69.06,
            103.11,
            140.78,
            73.79,
            -22.22,
            51.55,
            57.29,
            124.33,
            43.65,
            45.17,
            212.75,
            11.36,
            126.09,
            114.25,
            -16.04,
            99.78,
            121.61,
            -1.92,
            159.82,
            185.61,
            229.82,
            234.38,
            188.82,
            154.7,
            180.42,
            118.91,
            157.76,
            95.39,
            248.58,
            277.18,
            450.58,
            469.64,
            679.44,
            1099.53,
            1223.22,
            1587.91,
            1455.36,
            1739.87,
            1543.24,
            1700.72,
            1226.78,
            1248.71,
            1019.39,
            628.65,
            567.04,
            608.0,
            536.8,
            251.2,
            167.22,
            211.25,
            156.5,
            104.7,
            83.97,
            59.33,
            60.96,
            26.36,
            40.57,
            136.07,
            103.17,
            5.58,
            136.8,
            150.51,
            131.01,
            -34.7,
            185.48,
            141.19,
            138.27,
            69.24,
            183.3,
            59.4,
            -26.56,
            107.58,
            79.86,
            158.47,
            131.59,
            207.27,
            121.11,
            188.43,
            124.73,
            288.03,
            116.63,
            149.32,
            216.37,
            261.01,
            322.37,
            381.87,
            445.45,
            591.87,
            838.38,
            884.34,
            1753.2,
            1517.22,
            2104.25,
            1515.87,
            1685.78,
            2745.51,
            2601.76,
            1696.19,
            1816.57,
            1645.58,
            1188.93,
            801.07,
            664.37,
            449.45,
            396.59,
            232.95,
            279.0,
            172.32,
            159.32,
            238.86,
            143.52,
            240.49,
            63.05,
            115.5,
            98.53,
            163.06,
            106.83,
            229.21,
            212.73,
            344.97,
            155.43,
            192.88,
            189.77,
            79.92,
            163.29,
            138.02,
            -4.98,
            84.73,
            141.34,
            56.36,
            62.59,
            -22.16,
            43.64,
            112.09,
            81.06,
            182.89,
            73.11,
            -29.39,
            95.27,
            33.37,
            82.55,
            17.06,
            56.33,
            31.29,
            48.54,
            -49.83,
            93.45,
            -7.45,
            116.25,
            96.61,
            72.72,
            -3.15,
            51.15,
            32.74,
            -17.39,
            33.92,
            -77.44,
            -47.89,
            23.54,
            54.32,
            114.36,
            118.73,
            -9.19,
            98.44,
            24.5,
            13.03,
            30.16,
            -5.25,
            -14.27,
            206.86,
            179.87,
            161.27,
            165.91,
            362.5,
            237.21,
            327.19,
            373.81,
            329.27,
            199.74,
            114.74,
            -13.76,
            195.59,
            13.46,
            115.23,
            46.11,
            139.13,
            -35.72,
            35.56,
            10.54,
            12.25,
            31.84,
            2.49,
            44.5,
            -39.13,
            -52.09,
            80.37,
            22.18,
            123.24,
            110.36,
            127.26,
            -107.24,
            -45.1,
            81.73,
            74.1,
            68.88,
            49.69,
            -28.52,
            51.04,
            81.22,
            -6.23,
            10.94,
            21.66,
            118.45,
            -44.6,
            248.7,
            102.12,
            89.41,
            167.4,
            330.88,
            398.82,
            498.08,
            323.16,
            485.9,
            407.07,
            379.64,
            249.13,
            184.4,
            126.32,
            216.41,
            383.87,
            420.89,
            459.48,
            642.65,
            845.41,
            930.34,
            737.41,
            532.78,
            272.02,
            129.9,
            88.7,
            30.44,
            31.81,
            148.18,
            25.28,
            53.66,
            28.01,
            122.28,
            197.56,
            332.78,
            530.07,
            944.85,
            1058.91,
            1115.58,
            970.15,
            753.62,
            358.87,
            203.06,
            64.3,
            46.43,
            49.09,
            59.05,
            97.9,
            34.33,
            77.17,
            36.03,
            50.73,
            -2.1,
            21.38,
            104.15,
            67.84,
            20.95,
            30.71,
            -70.89,
            2.95,
            43.58,
            -15.02,
            20.13,
            -29.34,
            21.85,
            73.57,
            -36.6,
            94.66,
            84.75,
            67.37,
            66.44,
            26.18,
            -17.11,
            21.94,
            57.76,
            21.31,
            -39.01,
            35.25,
            -24.89,
            37.1,
            -18.64,
            43.91,
            86.08,
            10.42,
            118.59,
            183.12,
            4.11,
            -0.36,
            9.49,
            73.26,
            -21.9,
            57.39,
            -23.7,
            -15.24,
            79.09,
            17.7,
            148.93,
            222.54,
            568.99,
            498.14,
            674.22,
            693.22,
            605.77,
            363.2,
            380.22,
            405.0,
            518.67,
            797.01,
            1169.52,
            1491.61,
            1597.26,
            1658.01,
            1723.09,
            1517.77,
            953.71,
            549.07,
            495.0,
            510.79,
            464.69,
            475.9,
            302.85,
            247.74,
            212.36,
            153.29,
            104.47,
            84.54,
            74.27,
            31.66,
            123.19,
            87.77,
            92.33,
            -0.74,
            41.41,
            32.79,
            -21.74,
            28.48,
            37.91,
            65.96,
            100.45,
            34.0,
            76.79,
            57.14,
            52.3,
            376.64,
            413.88,
            782.3,
            637.43,
            724.58,
            889.49,
            552.01,
            370.49,
            91.93,
            67.73,
            45.42,
            111.84,
            38.41,
            9.0,
            23.61,
            127.07,
            126.21,
            208.79,
            393.19,
            425.75,
            508.56,
            424.01,
            266.77,
            211.58,
            58.92,
            49.94,
            79.25,
            63.19,
            -46.28,
            27.83,
            15.15,
            68.05,
            -12.3,
            -16.95,
            51.78,
            34.72,
            -4.18,
            33.03,
            14.93,
            76.6,
            26.49,
            -13.53,
            -54.43,
            25.29,
            47.43,
            95.73,
            44.38,
            86.87,
            121.0,
            264.28,
            322.35,
            625.56,
            647.9,
            692.48,
            547.21,
            390.87,
            260.11,
            145.16,
            32.98,
            92.69,
            76.0,
            -27.67,
            118.24,
            93.73,
            232.84,
            42.29,
            73.87,
            67.33,
            83.76,
            -27.86,
            -6.49,
            34.56,
            24.12,
            34.29,
            -29.39,
            -7.96,
            12.66,
            7.78,
            56.83,
            39.09,
            -38.18,
            57.22,
            54.97,
            -64.79,
            35.0,
            -29.29,
            -49.49,
            52.31,
            -23.87,
            88.53,
            38.52,
            11.31,
            -51.8,
            43.16,
            66.8,
            30.24,
            14.13,
            -19.24,
            -20.05,
            38.29,
            122.11,
            101.32,
            165.02,
            221.29,
            144.06,
            138.47,
            128.19,
            38.97,
            98.71,
            -20.87,
            62.66,
            122.59,
            101.61,
            94.69,
            47.76,
            12.74,
            -27.81,
            127.23,
            18.78,
            3.96,
            92.14,
            10.76,
            -8.12,
            73.07,
            38.33,
            82.06,
            -16.78,
            24.42,
            73.61,
            75.84,
            10.66,
            -19.37,
            82.6,
            21.11,
            90.24,
            -44.21,
            46.38,
            114.49,
            22.92,
            46.97,
            11.3,
            27.8,
            77.77,
            122.55,
            48.99,
            148.76,
            -0.51,
            98.71,
            34.01,
            -11.31,
            6.33,
            72.25,
            9.07,
            -55.6,
            130.16,
            11.06,
            177.33,
            293.96,
            337.18,
            610.18,
            738.4,
            1087.66,
            1187.84,
            1015.74,
            1151.29,
            1102.78,
            916.87,
            595.65,
            506.8,
            276.8,
            393.48,
            250.4,
            301.99,
            287.35,
            198.47,
            159.13,
            220.48,
            298.11,
            506.4,
            523.22,
            497.4,
            477.05,
            478.7,
            530.3,
            227.24,
            239.58,
            103.79,
            33.78,
            108.82,
            -7.84,
            142.48,
            87.0,
            -13.02,
            108.31,
            100.97,
            5.21,
            67.23,
            47.66,
            34.57,
            97.17,
            -71.22,
            21.64,
            -58.91,
            63.52,
            23.93,
            127.68,
            -10.46,
            24.72,
            22.45,
            74.99,
            14.87,
            67.06,
            -26.64,
            -5.37,
            80.96,
            2.09,
            17.98,
            54.59,
            133.33,
            91.99,
            63.53,
            8.16,
            30.44,
            43.78,
            32.06,
            131.55,
            63.89,
            86.03,
            43.22,
            14.42,
            7.56,
            -30.57,
            23.01,
            9.93,
            -53.09,
            66.95,
            121.64,
            10.04,
            86.18,
            52.65,
            -11.95,
            104.21,
            89.93,
            19.57,
            96.89,
            30.67,
            45.88,
            45.15,
            50.87,
            81.43,
            179.46,
            264.34,
            208.23,
            242.71,
            395.39,
            430.53,
            422.51,
            208.41,
            181.06,
            139.98,
            153.72,
            91.25,
            5.69,
            147.89,
            52.24,
            58.11,
            42.62,
            -13.4,
            -41.34,
            -52.44,
            51.18,
            48.82,
            130.52,
            135.2,
            17.51,
            57.51,
            14.48,
            16.95,
            5.12,
            109.45,
            13.2,
            106.25,
            105.53,
            179.92,
            120.07,
            115.78,
            145.88,
            139.65,
            -3.62,
            114.69,
            80.62,
            -2.6,
            4.62,
            120.81,
            222.94,
            92.7,
            149.85,
            48.43,
            18.04,
            96.89,
            41.29,
            60.79,
            136.29,
            50.9,
            134.87,
            26.15,
            37.04,
            -20.24,
            102.95,
            43.28,
            62.97,
            -7.24,
            110.92,
            86.97,
            77.48,
            89.1,
            77.82,
            3.0,
            -34.23,
            53.2,
            76.77,
            -9.47,
            19.14,
            140.09,
            191.63,
            -43.78,
            -6.52,
            45.89,
            72.92,
            30.93,
            55.83,
            128.86,
            32.22,
            131.21,
            20.75,
            -6.31,
            16.02,
            42.35,
            55.47,
            27.36,
            33.44,
            107.05,
            10.2,
            91.05,
            22.21,
            62.87,
            46.46,
            54.47,
            93.04,
            88.71,
            91.66,
            -41.41,
            138.9,
            19.38,
            112.9,
            93.7,
            145.79,
            72.38,
            -31.85,
            13.58,
            -7.14,
            48.35,
            -8.51,
            77.28,
            -35.95,
            86.84,
            131.2,
            47.76,
            36.57,
            64.17,
            26.55,
            -3.0,
            -60.47,
            68.65,
            248.78,
            -75.02,
            105.35,
            18.35,
            21.12,
            57.37,
            -28.96,
            113.33,
            6.42,
            -14.46,
            122.8,
            51.52,
            17.44,
            -53.12
          ]
        ]
      }
    }
  },
  "experimental_conditions": {
    "001": {
      "0": {
        "detector": [
          {
            "x4_code": "(SCIN)",
            "free_txt": [
              " Plastic scintillators for self-indication",
              "       measurements"
            ]
          },
          {
            "x4_code": "(NAICR)",
            "free_txt": [
              " Sodium-iodide crystals for viewing a boron slab"
            ]
          }
        ],
        "err-analys": [
          {
            "x4_code": "(DATA-ERR)",
            "free_txt": [
              " No information on source of uncertainties."
            ]
          }
        ],
        "facility": [
          {
            "x4_code": "(SYNCH,1USACOL)",
            "free_txt": [
              " Nevis synchrocyclotron"
            ]
          }
        ],
        "inc-source": [
          {
            "x4_code": "(EVAP)",
            "free_txt": [
              " Evaporation neutrons from lead."
            ]
          }
        ],
        "method": [
          {
            "x4_code": "(TOF)",
            "free_txt": [
              " Time-of-flight"
            ]
          }
        ],
        "sample": [
          {
            "x4_code": null,
            "free_txt": [
              "Enriched 177Hf samples of various thicknesses"
            ]
          }
        ],
        "status": [
          {
            "x4_code": "(APRVD)",
            "free_txt": [
              " Approved by author 1975/8/7."
            ]
          }
        ]
      }
    },
    "002": {},
    "004": {},
    "005": {},
    "006": {},
    "007": {},
    "008": {
      "0": {
        "correction": [
          {
            "x4_code": null,
            "free_txt": [
              "Uncorrected cross section data."
            ]
          }
        ],
        "sample": [
          {
            "x4_code": null,
            "free_txt": [
              "Sample thickness 940.0 b/atom."
            ]
          }
        ],
        "status": [
          {
            "x4_code": null,
            "free_txt": [
              "Data received from authors."
            ]
          }
        ]
      }
    }
  }
}