{
  "bib": {
    "title": "Total Neutron Cross Section Of 235U.",
    "authors": [
      {
        "name": "F.L.Green"
      },
      {
        "name": "K.A.Nadolny"
      },
      {
        "name": "P.Stoler"
      }
    ],
    "institutes": [
      {
        "x4_code": "(1USARPI)",
        "free_txt": []
      }
    ],
    "references": {
      "0": [
        {
          "x4_code": "(P,USNDC-9,170,197312)",
          "free_txt": [],
          "publication_year": "1973"
        }
      ]
    },
    "facility": {
      "0": [
        {
          "x4_code": "(LINAC,1USARPI)",
          "free_txt": [],
          "facility_type": "(LINAC)",
          "insitute": "(1USARPI)"
        }
      ]
    },
    "history": [
      {
        "x4_code": "(19760317C)",
        "free_txt": []
      },
      {
        "x4_code": "(19800506U)",
        "free_txt": [
          " Converted to REACTION formalism."
        ]
      },
      {
        "x4_code": "(19830922A)",
        "free_txt": [
          " BIB update."
        ]
      },
      {
        "x4_code": "(20040723A)",
        "free_txt": [
          " Converted to new data formts, lower case."
        ]
      }
    ]
  },
  "10588-001": {
    "extra_information": {
      "detector": {
        "0": [
          {
            "x4_code": "(SCIN)",
            "free_txt": [
              " Proton recoil scintillator."
            ]
          }
        ]
      },
      "err-analys": {
        "0": [
          {
            "x4_code": "(DATA-ERR)",
            "free_txt": [
              " No information on source of uncertainty.",
              "Systematic errors estimated to be 1% above 1 MeV to",
              " about 15 MeV, and may become slightly worse at higher",
              " energies."
            ]
          }
        ]
      },
      "facility": {
        "0": [
          {
            "x4_code": "(LINAC,1USARPI)",
            "free_txt": []
          }
        ]
      },
      "method": {
        "0": [
          {
            "x4_code": "(TOF)",
            "free_txt": [
              " Time of flight.  250-meter flight path."
            ]
          }
        ]
      },
      "status": {
        "0": [
          {
            "x4_code": null,
            "free_txt": [
              "No reply to author proof.",
              " Data taken from private comm., Stoler, 1976/3."
            ]
          }
        ]
      }
    }
  },
  "10588-002": {
    "reaction": {
      "0": {
        "x4_code": "(92-U-235(N,TOT),,SIG)",
        "0": {
          "code": [
            "92-U-235",
            [
              "N,TOT"
            ],
            ",,SIG"
          ],
          "type": null,
          "target": "92-U-235",
          "process": "N,TOT",
          "sf49": ",,SIG",
          "sf4": null,
          "sf5": null,
          "sf6": "SIG",
          "sf7": null,
          "sf8": null,
          "sf9": null
        },
        "type": null,
        "free_text": ""
      }
    },
    "extra_information": {},
    "common": null,
    "data": {
      "heads": [
        "EN",
        "DATA",
        "DATA-ERR"
      ],
      "units": [
        "MEV",
        "B",
        "MB"
      ],
      "data": [
        [
          0.5009,
          0.5021,
          0.5033,
          0.5045,
          0.5058,
          0.507,
          0.5082,
          0.5095,
          0.5107,
          0.512,
          0.5132,
          0.5145,
          0.5158,
          0.5171,
          0.5183,
          0.5196,
          0.5209,
          0.5222,
          0.5235,
          0.5248,
          0.5261,
          0.5274,
          0.5287,
          0.5301,
          0.5314,
          0.5327,
          0.534,
          0.5354,
          0.5367,
          0.5381,
          0.5394,
          0.5408,
          0.5422,
          0.5435,
          0.5449,
          0.5463,
          0.5477,
          0.5491,
          0.5505,
          0.5519,
          0.5538,
          0.5547,
          0.5561,
          0.5576,
          0.559,
          0.5604,
          0.5619,
          0.5633,
          0.5648,
          0.5662,
          0.5677,
          0.5692,
          0.5707,
          0.5721,
          0.5736,
          0.5751,
          0.5766,
          0.5781,
          0.5796,
          0.5812,
          0.5827,
          0.5842,
          0.5857,
          0.5873,
          0.5888,
          0.5904,
          0.5919,
          0.5951,
          0.5967,
          0.5982,
          0.5985,
          0.5998,
          0.6014,
          0.603,
          0.6047,
          0.6063,
          0.6079,
          0.6095,
          0.6112,
          0.6128,
          0.6145,
          0.6161,
          0.6178,
          0.6194,
          0.6211,
          0.6228,
          0.6245,
          0.6262,
          0.6279,
          0.6296,
          0.6313,
          0.633,
          0.6348,
          0.6365,
          0.6383,
          0.64,
          0.6418,
          0.6436,
          0.6453,
          0.6471,
          0.6489,
          0.6507,
          0.6525,
          0.6543,
          0.6561,
          0.658,
          0.6598,
          0.6616,
          0.6635,
          0.6654,
          0.6672,
          0.6691,
          0.671,
          0.6729,
          0.6748,
          0.6767,
          0.6786,
          0.6805,
          0.6824,
          0.6844,
          0.6863,
          0.6883,
          0.6902,
          0.6922,
          0.6942,
          0.6962,
          0.6982,
          0.7002,
          0.7022,
          0.7042,
          0.7063,
          0.7083,
          0.7104,
          0.7124,
          0.7145,
          0.7166,
          0.7187,
          0.7208,
          0.7229,
          0.725,
          0.7271,
          0.7292,
          0.7314,
          0.7335,
          0.7357,
          0.7379,
          0.74,
          0.7422,
          0.7444,
          0.7466,
          0.7489,
          0.7511,
          0.7533,
          0.7556,
          0.7578,
          0.7601,
          0.7624,
          0.7647,
          0.767,
          0.7693,
          0.7716,
          0.7739,
          0.7763,
          0.7786,
          0.781,
          0.7834,
          0.7858,
          0.7882,
          0.7906,
          0.793,
          0.7954,
          0.7978,
          0.8003,
          0.8028,
          0.8052,
          0.8077,
          0.8102,
          0.8127,
          0.8153,
          0.8178,
          0.8203,
          0.8229,
          0.8255,
          0.828,
          0.8306,
          0.8332,
          0.8358,
          0.8385,
          0.8411,
          0.8438,
          0.8464,
          0.8491,
          0.8518,
          0.8545,
          0.8572,
          0.86,
          0.8627,
          0.8655,
          0.8682,
          0.8719,
          0.8738,
          0.8766,
          0.8795,
          0.8823,
          0.8851,
          0.888,
          0.8938,
          0.8967,
          0.8996,
          0.8999,
          0.9055,
          0.9085,
          0.9115,
          0.9144,
          0.9175,
          0.9205,
          0.9235,
          0.9266,
          0.9296,
          0.9327,
          0.9358,
          0.9389,
          0.9421,
          0.9452,
          0.9484,
          0.9516,
          0.9548,
          0.958,
          0.9612,
          0.9644,
          0.9677,
          0.971,
          0.9743,
          0.9776,
          0.9809,
          0.9843,
          0.9876,
          0.991,
          0.9926,
          0.9944,
          0.9978,
          1.0012,
          1.0047,
          1.0081,
          1.0116,
          1.0137,
          1.0151,
          1.0222,
          1.0258,
          1.0293,
          1.0329,
          1.0365,
          1.0402,
          1.0438,
          1.0475,
          1.0512,
          1.0549,
          1.0586,
          1.0624,
          1.0661,
          1.0699,
          1.0737,
          1.0776,
          1.0814,
          1.0853,
          1.0892,
          1.0931,
          1.097,
          1.101,
          1.105,
          1.109,
          1.113,
          1.117,
          1.1211,
          1.1252,
          1.1293,
          1.1334,
          1.1376,
          1.1418,
          1.146,
          1.1502,
          1.1544,
          1.1587,
          1.163,
          1.1673,
          1.1717,
          1.176,
          1.1804,
          1.1848,
          1.1893,
          1.1937,
          1.1982,
          1.2027,
          1.2073,
          1.2119,
          1.2165,
          1.2211,
          1.2257,
          1.2304,
          1.2351,
          1.2398,
          1.2446,
          1.2494,
          1.2542,
          1.259,
          1.2639,
          1.2688,
          1.2737,
          1.2786,
          1.2836,
          1.2886,
          1.2937,
          1.2987,
          1.3038,
          1.309,
          1.3141,
          1.3193,
          1.3245,
          1.3298,
          1.3351,
          1.3404,
          1.3457,
          1.3511,
          1.3565,
          1.3619,
          1.3674,
          1.3729,
          1.3785,
          1.384,
          1.3896,
          1.3953,
          1.401,
          1.4067,
          1.4124,
          1.4182,
          1.424,
          1.4299,
          1.4358,
          1.4417,
          1.4477,
          1.4537,
          1.4597,
          1.4658,
          1.4719,
          1.4781,
          1.4842,
          1.4905,
          1.4967,
          1.5031,
          1.5094,
          1.5159,
          1.5222,
          1.5287,
          1.5352,
          1.5418,
          1.5484,
          1.555,
          1.5617,
          1.5684,
          1.5752,
          1.582,
          1.5888,
          1.5957,
          1.6027,
          1.6097,
          1.6167,
          1.6238,
          1.6309,
          1.6381,
          1.6453,
          1.6526,
          1.6599,
          1.6673,
          1.6747,
          1.6822,
          1.6897,
          1.6973,
          1.7049,
          1.7126,
          1.7203,
          1.7281,
          1.7359,
          1.7438,
          1.7517,
          1.7673,
          1.7759,
          1.784,
          1.7923,
          1.8005,
          1.8089,
          1.8172,
          1.8257,
          1.8342,
          1.8423,
          1.8514,
          1.8601,
          1.8688,
          1.8776,
          1.8865,
          1.8954,
          1.9044,
          1.9135,
          1.9226,
          1.9318,
          1.9411,
          1.9502,
          1.9598,
          1.9692,
          1.9788,
          1.9884,
          1.998,
          2.0078,
          2.0176,
          2.0275,
          2.0374,
          2.0475,
          2.0576,
          2.0677,
          2.078,
          2.0883,
          2.0987,
          2.1092,
          2.1198,
          2.1304,
          2.1412,
          2.152,
          2.1629,
          2.1738,
          2.1849,
          2.196,
          2.2073,
          2.2186,
          2.23,
          2.2415,
          2.253,
          2.2647,
          2.2765,
          2.2883,
          2.3003,
          2.3123,
          2.3244,
          2.3367,
          2.3414,
          2.349,
          2.3739,
          2.3865,
          2.3993,
          2.4121,
          2.425,
          2.4381,
          2.4512,
          2.4644,
          2.4778,
          2.4913,
          2.5048,
          2.5185,
          2.5323,
          2.5462,
          2.5602,
          2.5744,
          2.5886,
          2.603,
          2.6175,
          2.6321,
          2.6469,
          2.6617,
          2.6767,
          2.6919,
          2.7071,
          2.7225,
          2.738,
          2.7536,
          2.7694,
          2.7853,
          2.8014,
          2.8176,
          2.8339,
          2.8504,
          2.867,
          2.8838,
          2.9007,
          2.9177,
          2.9349,
          2.9523,
          2.9698,
          2.9875,
          3.0053,
          3.0233,
          3.0415,
          3.0698,
          3.0783,
          3.097,
          3.1158,
          3.1348,
          3.154,
          3.1733,
          3.1929,
          3.2126,
          3.2325,
          3.2526,
          3.2728,
          3.2933,
          3.3139,
          3.3346,
          3.3558,
          3.3771,
          3.3985,
          3.4202,
          3.4421,
          3.4641,
          3.4864,
          3.5089,
          3.5316,
          3.5546,
          3.5778,
          3.6012,
          3.6248,
          3.6486,
          3.6727,
          3.6971,
          3.7217,
          3.7465,
          3.7716,
          3.7969,
          3.8225,
          3.8483,
          3.8744,
          3.9008,
          3.9275,
          3.9544,
          3.9816,
          4.0091,
          4.0368,
          4.0649,
          4.0933,
          4.1219,
          4.1509,
          4.1801,
          4.2097,
          4.2396,
          4.2698,
          4.3003,
          4.3312,
          4.3624,
          4.3939,
          4.4258,
          4.4581,
          4.4906,
          4.5236,
          4.5569,
          4.5906,
          4.6246,
          4.6591,
          4.6939,
          4.7291,
          4.7647,
          4.8007,
          4.8372,
          4.874,
          4.9113,
          4.949,
          4.9871,
          5.0257,
          5.0647,
          5.1042,
          5.1442,
          5.1846,
          5.2255,
          5.2669,
          5.3088,
          5.3512,
          5.3941,
          5.4375,
          5.4815,
          5.526,
          5.571,
          5.6166,
          5.6627,
          5.7095,
          5.7568,
          5.8047,
          5.8532,
          5.9023,
          5.952,
          6.0024,
          6.0534,
          6.1051,
          6.1574,
          6.2104,
          6.2642,
          6.3186,
          6.3737,
          6.4295,
          6.4861,
          6.5435,
          6.6016,
          6.6605,
          6.7201,
          6.7806,
          6.8419,
          6.9041,
          6.9671,
          7.031,
          7.0957,
          7.1614,
          7.228,
          7.2955,
          7.364,
          7.4334,
          7.5039,
          7.5753,
          7.6478,
          7.7213,
          7.7959,
          7.8716,
          7.9484,
          8.0264,
          8.1054,
          8.1857,
          8.2672,
          8.3499,
          8.4339,
          8.5191,
          8.6056,
          8.6935,
          8.7827,
          8.8733,
          8.9654,
          9.0589,
          9.1538,
          9.2503,
          9.3483,
          9.4479,
          9.5491,
          9.652,
          9.7565,
          9.8627,
          9.9707,
          10.0804,
          10.1921,
          10.3055,
          10.4209,
          10.5383,
          10.6576,
          10.779,
          10.9025,
          11.0281,
          11.156,
          11.2862,
          11.4186,
          11.5533,
          11.6905,
          11.8302,
          11.9724,
          12.1171,
          12.2646,
          12.4147,
          12.5677,
          12.7236,
          12.8822,
          13.0441,
          13.2089,
          13.3769,
          13.5482,
          13.7228,
          13.9009,
          14.0824,
          14.2675,
          14.4564,
          14.6491,
          14.8456,
          15.0463,
          15.251,
          15.4599,
          15.6732,
          15.891,
          16.1135,
          16.3406,
          16.5727,
          16.8097,
          17.0519,
          17.2994,
          17.5525,
          17.8111,
          18.0756,
          18.3461,
          18.6227,
          18.9057,
          19.1953,
          19.4918,
          19.795,
          20.1056,
          20.4237,
          20.7494,
          21.083,
          21.4249,
          21.7752,
          22.1342,
          22.5025,
          22.88,
          23.2672,
          23.6644,
          24.0721,
          24.4905,
          24.9202,
          25.3613,
          25.8144,
          26.2799,
          26.7584,
          27.2502,
          27.7559,
          28.2759,
          28.811,
          29.3617,
          29.9285,
          30.5122
        ],
        [
          7.913,
          8.36,
          7.97,
          8.238,
          8.165,
          8.156,
          8.138,
          8.407,
          8.3,
          7.988,
          8.173,
          8.04,
          8.192,
          7.783,
          8.131,
          8.416,
          7.754,
          8.105,
          8.27,
          8.001,
          7.84,
          7.721,
          8.181,
          8.127,
          7.93,
          8.207,
          8.027,
          8.11,
          7.991,
          7.967,
          8.223,
          7.945,
          8.21,
          8.069,
          7.89,
          7.939,
          8.016,
          7.728,
          8.193,
          7.922,
          8.066,
          7.837,
          7.791,
          7.8,
          8.001,
          8.074,
          7.911,
          8.034,
          8.206,
          7.863,
          7.854,
          8.045,
          7.788,
          7.834,
          7.788,
          7.68,
          7.978,
          7.879,
          8.052,
          7.881,
          7.858,
          7.869,
          7.783,
          7.893,
          7.989,
          7.786,
          7.655,
          7.822,
          7.61,
          7.854,
          7.777,
          7.868,
          7.65,
          7.766,
          7.819,
          7.918,
          7.711,
          7.83,
          7.646,
          7.803,
          7.969,
          7.858,
          7.815,
          7.568,
          7.622,
          7.714,
          7.734,
          7.603,
          7.869,
          7.67,
          7.74,
          7.695,
          7.744,
          7.595,
          7.784,
          7.509,
          7.501,
          7.585,
          7.621,
          7.578,
          7.806,
          7.778,
          7.501,
          7.495,
          7.741,
          7.666,
          7.723,
          7.486,
          7.584,
          7.489,
          7.742,
          7.551,
          7.611,
          7.565,
          7.405,
          7.527,
          7.393,
          7.374,
          7.357,
          7.481,
          7.473,
          7.461,
          7.446,
          7.509,
          7.523,
          7.581,
          7.233,
          7.331,
          7.467,
          7.47,
          7.463,
          7.261,
          7.428,
          7.46,
          7.382,
          7.359,
          7.249,
          7.39,
          7.361,
          7.428,
          7.329,
          7.311,
          7.389,
          7.321,
          7.154,
          7.235,
          7.473,
          7.362,
          7.462,
          7.262,
          7.225,
          7.338,
          7.3,
          7.31,
          7.214,
          7.418,
          7.298,
          7.255,
          7.306,
          7.372,
          7.238,
          7.269,
          7.337,
          7.187,
          7.347,
          7.239,
          7.15,
          7.08,
          7.337,
          7.25,
          7.13,
          7.139,
          7.131,
          7.13,
          7.057,
          7.112,
          7.193,
          7.212,
          7.093,
          7.171,
          7.243,
          7.191,
          7.31,
          7.061,
          7.14,
          7.179,
          7.059,
          7.184,
          7.242,
          7.176,
          6.966,
          7.159,
          7.122,
          7.038,
          6.995,
          6.886,
          7.048,
          6.989,
          7.086,
          6.986,
          7.047,
          7.087,
          6.944,
          7.018,
          7.019,
          7.047,
          6.959,
          6.943,
          7.053,
          6.948,
          6.891,
          6.994,
          6.979,
          7.022,
          6.984,
          6.862,
          6.889,
          7.002,
          6.881,
          6.888,
          6.853,
          6.846,
          6.964,
          6.935,
          6.853,
          6.858,
          6.824,
          6.914,
          6.894,
          6.806,
          6.841,
          6.983,
          6.768,
          6.796,
          6.978,
          6.761,
          6.723,
          6.835,
          7.058,
          6.91,
          6.776,
          6.941,
          6.839,
          6.726,
          6.859,
          6.863,
          6.864,
          6.768,
          6.688,
          6.781,
          6.846,
          6.768,
          6.698,
          6.766,
          6.902,
          6.765,
          6.732,
          6.734,
          6.775,
          6.745,
          6.744,
          6.821,
          6.819,
          6.803,
          6.833,
          6.729,
          6.693,
          6.741,
          6.766,
          6.758,
          6.711,
          6.846,
          6.756,
          6.689,
          6.688,
          6.765,
          6.717,
          6.618,
          6.771,
          6.669,
          6.69,
          6.689,
          6.602,
          6.626,
          6.755,
          6.681,
          6.688,
          6.683,
          6.74,
          6.761,
          6.591,
          6.7,
          6.633,
          6.671,
          6.77,
          6.755,
          6.732,
          6.564,
          6.714,
          6.72,
          6.677,
          6.735,
          6.749,
          6.574,
          6.669,
          6.759,
          6.705,
          6.67,
          6.647,
          6.619,
          6.624,
          6.637,
          6.695,
          6.709,
          6.708,
          6.625,
          6.696,
          6.735,
          6.583,
          6.771,
          6.692,
          6.73,
          6.615,
          6.678,
          6.648,
          6.711,
          6.708,
          6.695,
          6.771,
          6.73,
          6.681,
          6.803,
          6.828,
          6.695,
          6.7,
          6.791,
          6.728,
          6.736,
          6.712,
          6.821,
          6.775,
          6.773,
          6.699,
          6.768,
          6.725,
          6.762,
          6.796,
          6.718,
          6.765,
          6.729,
          6.839,
          6.733,
          6.765,
          6.718,
          6.761,
          6.832,
          6.765,
          6.871,
          6.821,
          6.821,
          6.849,
          6.854,
          6.875,
          6.762,
          6.912,
          6.891,
          6.847,
          6.797,
          6.761,
          6.947,
          6.896,
          6.815,
          6.814,
          6.831,
          6.974,
          7.0,
          6.948,
          6.939,
          6.971,
          6.897,
          6.978,
          6.828,
          6.954,
          7.015,
          6.973,
          6.99,
          7.003,
          6.95,
          6.953,
          6.977,
          7.027,
          7.102,
          7.02,
          7.099,
          7.037,
          6.985,
          7.016,
          7.137,
          7.067,
          7.058,
          7.182,
          7.166,
          7.116,
          7.107,
          7.146,
          7.195,
          7.262,
          7.19,
          7.218,
          7.147,
          7.138,
          7.2,
          7.142,
          7.194,
          7.187,
          7.297,
          7.233,
          7.276,
          7.212,
          7.213,
          7.272,
          7.26,
          7.298,
          7.241,
          7.276,
          7.237,
          7.288,
          7.353,
          7.329,
          7.361,
          7.357,
          7.383,
          7.348,
          7.262,
          7.432,
          7.384,
          7.396,
          7.463,
          7.358,
          7.341,
          7.441,
          7.458,
          7.49,
          7.422,
          7.494,
          7.56,
          7.466,
          7.611,
          7.471,
          7.463,
          7.605,
          7.472,
          7.652,
          7.678,
          7.547,
          7.514,
          7.582,
          7.64,
          7.643,
          7.638,
          7.642,
          7.608,
          7.704,
          7.671,
          7.709,
          7.697,
          7.732,
          7.788,
          7.726,
          7.861,
          7.715,
          7.737,
          7.835,
          7.676,
          7.79,
          7.755,
          7.814,
          7.814,
          7.788,
          7.886,
          7.771,
          7.817,
          7.983,
          7.768,
          7.803,
          7.917,
          7.896,
          7.847,
          7.851,
          7.836,
          7.958,
          7.816,
          7.855,
          7.995,
          7.872,
          7.805,
          8.044,
          7.9,
          7.905,
          7.983,
          7.886,
          7.989,
          7.989,
          7.836,
          7.93,
          7.999,
          7.917,
          8.051,
          7.945,
          7.877,
          8.074,
          8.003,
          7.953,
          7.893,
          7.972,
          8.03,
          8.133,
          8.094,
          7.889,
          7.863,
          7.991,
          8.052,
          8.006,
          7.97,
          7.984,
          7.958,
          7.942,
          7.814,
          8.019,
          8.017,
          7.94,
          8.039,
          8.023,
          7.952,
          7.913,
          7.86,
          7.894,
          8.054,
          7.925,
          8.007,
          7.847,
          7.965,
          7.873,
          7.91,
          7.926,
          7.91,
          7.854,
          7.862,
          7.987,
          7.849,
          7.822,
          7.737,
          7.846,
          7.897,
          7.743,
          7.771,
          7.77,
          7.736,
          7.709,
          7.707,
          7.68,
          7.69,
          7.713,
          7.642,
          7.673,
          7.579,
          7.696,
          7.541,
          7.502,
          7.502,
          7.571,
          7.516,
          7.46,
          7.419,
          7.41,
          7.348,
          7.285,
          7.366,
          7.293,
          7.266,
          7.225,
          7.21,
          7.12,
          7.178,
          7.031,
          7.098,
          7.025,
          7.029,
          6.938,
          6.942,
          6.967,
          6.988,
          6.8,
          6.889,
          6.812,
          6.833,
          6.737,
          6.713,
          6.641,
          6.682,
          6.683,
          6.655,
          6.619,
          6.615,
          6.499,
          6.546,
          6.457,
          6.396,
          6.497,
          6.488,
          6.394,
          6.412,
          6.262,
          6.392,
          6.375,
          6.226,
          6.195,
          6.338,
          6.219,
          6.141,
          6.155,
          6.115,
          6.093,
          6.055,
          6.083,
          6.045,
          6.002,
          6.008,
          5.97,
          5.888,
          5.979,
          5.893,
          5.877,
          5.831,
          5.917,
          5.841,
          5.967,
          5.959,
          5.763,
          5.804,
          5.813,
          5.878,
          5.613,
          5.776,
          5.708,
          5.887,
          5.785,
          5.715,
          5.685,
          5.908,
          5.683,
          5.788,
          5.788,
          5.778,
          5.772,
          5.789,
          5.742,
          5.669,
          5.913,
          5.803,
          6.095,
          5.643,
          5.819,
          6.039,
          5.811,
          6.025,
          5.881,
          5.74,
          5.916,
          5.846,
          5.998,
          6.057,
          5.913,
          5.892,
          6.092,
          6.145,
          6.041,
          6.088,
          5.832,
          6.268,
          6.301,
          6.271,
          6.234,
          6.318,
          6.088,
          6.013,
          6.168,
          6.556,
          5.895,
          6.834,
          6.565,
          6.469,
          6.3,
          6.197,
          6.429,
          6.232,
          6.374,
          6.334,
          6.144,
          5.875,
          6.376,
          6.279,
          5.785,
          6.136,
          6.54,
          6.24,
          5.81,
          5.87,
          6.374,
          5.513,
          6.021,
          5.693,
          5.989,
          6.481,
          5.597,
          5.612
        ],
        [
          158.0,
          158.0,
          151.0,
          148.0,
          146.0,
          146.0,
          147.0,
          149.0,
          146.0,
          138.0,
          139.0,
          135.0,
          139.0,
          137.0,
          140.0,
          145.0,
          142.0,
          149.0,
          155.0,
          159.0,
          171.0,
          165.0,
          160.0,
          150.0,
          142.0,
          139.0,
          133.0,
          133.0,
          133.0,
          133.0,
          130.0,
          124.0,
          128.0,
          130.0,
          128.0,
          123.0,
          121.0,
          113.0,
          119.0,
          120.0,
          117.0,
          114.0,
          116.0,
          121.0,
          119.0,
          121.0,
          121.0,
          120.0,
          121.0,
          120.0,
          121.0,
          121.0,
          120.0,
          117.0,
          115.0,
          114.0,
          113.0,
          108.0,
          106.0,
          103.0,
          104.0,
          105.0,
          109.0,
          109.0,
          107.0,
          103.0,
          99.0,
          97.0,
          102.0,
          101.0,
          98.0,
          95.0,
          92.0,
          90.0,
          88.0,
          88.0,
          88.0,
          88.0,
          92.0,
          95.0,
          96.0,
          95.0,
          94.0,
          93.0,
          94.0,
          93.0,
          92.0,
          92.0,
          92.0,
          92.0,
          93.0,
          94.0,
          97.0,
          91.0,
          90.0,
          93.0,
          92.0,
          94.0,
          99.0,
          99.0,
          99.0,
          99.0,
          95.0,
          94.0,
          92.0,
          89.0,
          86.0,
          84.0,
          84.0,
          84.0,
          85.0,
          85.0,
          83.0,
          81.0,
          81.0,
          82.0,
          80.0,
          78.0,
          79.0,
          79.0,
          78.0,
          76.0,
          76.0,
          77.0,
          78.0,
          75.0,
          75.0,
          75.0,
          75.0,
          77.0,
          78.0,
          73.0,
          74.0,
          72.0,
          75.0,
          75.0,
          78.0,
          79.0,
          74.0,
          75.0,
          72.0,
          72.0,
          71.0,
          69.0,
          69.0,
          68.0,
          67.0,
          68.0,
          69.0,
          68.0,
          68.0,
          68.0,
          71.0,
          71.0,
          69.0,
          68.0,
          69.0,
          69.0,
          65.0,
          65.0,
          67.0,
          69.0,
          69.0,
          70.0,
          72.0,
          74.0,
          77.0,
          73.0,
          70.0,
          68.0,
          67.0,
          66.0,
          65.0,
          64.0,
          63.0,
          63.0,
          64.0,
          66.0,
          65.0,
          63.0,
          63.0,
          63.0,
          63.0,
          61.0,
          60.0,
          60.0,
          58.0,
          59.0,
          59.0,
          59.0,
          60.0,
          64.0,
          59.0,
          60.0,
          60.0,
          58.0,
          58.0,
          56.0,
          56.0,
          57.0,
          57.0,
          55.0,
          54.0,
          54.0,
          54.0,
          52.0,
          51.0,
          52.0,
          51.0,
          51.0,
          50.0,
          50.0,
          50.0,
          50.0,
          51.0,
          50.0,
          51.0,
          52.0,
          52.0,
          50.0,
          48.0,
          50.0,
          52.0,
          53.0,
          52.0,
          51.0,
          51.0,
          52.0,
          52.0,
          52.0,
          55.0,
          54.0,
          55.0,
          55.0,
          56.0,
          57.0,
          56.0,
          56.0,
          51.0,
          57.0,
          58.0,
          59.0,
          59.0,
          59.0,
          59.0,
          58.0,
          59.0,
          59.0,
          58.0,
          56.0,
          55.0,
          55.0,
          57.0,
          56.0,
          53.0,
          53.0,
          51.0,
          51.0,
          50.0,
          49.0,
          48.0,
          47.0,
          47.0,
          47.0,
          49.0,
          50.0,
          49.0,
          49.0,
          50.0,
          51.0,
          54.0,
          57.0,
          55.0,
          53.0,
          51.0,
          49.0,
          49.0,
          47.0,
          48.0,
          50.0,
          50.0,
          49.0,
          50.0,
          50.0,
          50.0,
          49.0,
          49.0,
          51.0,
          48.0,
          48.0,
          47.0,
          48.0,
          49.0,
          49.0,
          49.0,
          48.0,
          50.0,
          50.0,
          52.0,
          51.0,
          50.0,
          49.0,
          52.0,
          52.0,
          52.0,
          52.0,
          51.0,
          53.0,
          52.0,
          52.0,
          55.0,
          54.0,
          55.0,
          55.0,
          55.0,
          55.0,
          55.0,
          53.0,
          52.0,
          52.0,
          54.0,
          54.0,
          52.0,
          49.0,
          47.0,
          47.0,
          49.0,
          49.0,
          50.0,
          49.0,
          50.0,
          49.0,
          48.0,
          47.0,
          47.0,
          47.0,
          48.0,
          48.0,
          47.0,
          47.0,
          45.0,
          46.0,
          46.0,
          45.0,
          44.0,
          44.0,
          44.0,
          43.0,
          44.0,
          45.0,
          45.0,
          46.0,
          46.0,
          47.0,
          46.0,
          44.0,
          45.0,
          44.0,
          44.0,
          44.0,
          45.0,
          48.0,
          49.0,
          47.0,
          46.0,
          44.0,
          44.0,
          44.0,
          44.0,
          49.0,
          47.0,
          45.0,
          45.0,
          44.0,
          45.0,
          46.0,
          46.0,
          46.0,
          46.0,
          46.0,
          47.0,
          50.0,
          50.0,
          49.0,
          48.0,
          49.0,
          48.0,
          47.0,
          46.0,
          45.0,
          45.0,
          47.0,
          46.0,
          45.0,
          46.0,
          45.0,
          45.0,
          45.0,
          46.0,
          48.0,
          48.0,
          48.0,
          48.0,
          48.0,
          47.0,
          47.0,
          45.0,
          45.0,
          45.0,
          46.0,
          47.0,
          47.0,
          47.0,
          47.0,
          48.0,
          47.0,
          47.0,
          52.0,
          51.0,
          48.0,
          48.0,
          47.0,
          47.0,
          47.0,
          47.0,
          48.0,
          48.0,
          49.0,
          48.0,
          49.0,
          49.0,
          49.0,
          48.0,
          48.0,
          48.0,
          49.0,
          49.0,
          49.0,
          50.0,
          48.0,
          49.0,
          49.0,
          48.0,
          49.0,
          49.0,
          51.0,
          52.0,
          52.0,
          52.0,
          51.0,
          51.0,
          52.0,
          54.0,
          56.0,
          56.0,
          55.0,
          55.0,
          57.0,
          58.0,
          57.0,
          56.0,
          55.0,
          55.0,
          55.0,
          56.0,
          55.0,
          55.0,
          55.0,
          55.0,
          55.0,
          55.0,
          57.0,
          59.0,
          57.0,
          57.0,
          56.0,
          57.0,
          58.0,
          59.0,
          60.0,
          61.0,
          61.0,
          63.0,
          62.0,
          59.0,
          58.0,
          59.0,
          57.0,
          57.0,
          59.0,
          59.0,
          59.0,
          60.0,
          62.0,
          60.0,
          61.0,
          65.0,
          64.0,
          65.0,
          66.0,
          65.0,
          66.0,
          66.0,
          66.0,
          67.0,
          67.0,
          66.0,
          66.0,
          67.0,
          67.0,
          69.0,
          68.0,
          68.0,
          70.0,
          69.0,
          69.0,
          68.0,
          67.0,
          67.0,
          67.0,
          67.0,
          71.0,
          69.0,
          66.0,
          65.0,
          65.0,
          64.0,
          64.0,
          64.0,
          64.0,
          64.0,
          64.0,
          63.0,
          62.0,
          62.0,
          62.0,
          64.0,
          64.0,
          62.0,
          62.0,
          61.0,
          63.0,
          63.0,
          61.0,
          60.0,
          59.0,
          58.0,
          59.0,
          60.0,
          58.0,
          58.0,
          58.0,
          57.0,
          56.0,
          55.0,
          55.0,
          56.0,
          55.0,
          54.0,
          54.0,
          54.0,
          54.0,
          55.0,
          56.0,
          58.0,
          55.0,
          54.0,
          54.0,
          54.0,
          54.0,
          54.0,
          52.0,
          51.0,
          51.0,
          51.0,
          53.0,
          53.0,
          52.0,
          50.0,
          50.0,
          50.0,
          50.0,
          51.0,
          49.0,
          49.0,
          49.0,
          48.0,
          48.0,
          48.0,
          49.0,
          48.0,
          48.0,
          47.0,
          47.0,
          47.0,
          46.0,
          46.0,
          47.0,
          46.0,
          46.0,
          46.0,
          46.0,
          46.0,
          47.0,
          48.0,
          48.0,
          49.0,
          49.0,
          49.0,
          49.0,
          49.0,
          50.0,
          51.0,
          51.0,
          51.0,
          49.0,
          49.0,
          50.0,
          50.0,
          50.0,
          50.0,
          51.0,
          52.0,
          52.0,
          53.0,
          53.0,
          54.0,
          54.0,
          55.0,
          55.0,
          56.0,
          57.0,
          58.0,
          59.0,
          60.0,
          61.0,
          61.0,
          63.0,
          63.0,
          65.0,
          65.0,
          66.0,
          66.0,
          67.0,
          63.0,
          70.0,
          71.0,
          72.0,
          73.0,
          75.0,
          76.0,
          78.0,
          78.0,
          79.0,
          80.0,
          82.0,
          84.0,
          85.0,
          86.0,
          88.0,
          90.0,
          90.0,
          91.0,
          93.0,
          95.0,
          97.0,
          99.0,
          100.0,
          102.0,
          103.0,
          104.0,
          108.0,
          109.0,
          113.0,
          114.0,
          116.0,
          117.0,
          121.0,
          122.0,
          125.0,
          129.0,
          131.0,
          135.0,
          138.0,
          141.0,
          143.0,
          147.0,
          153.0,
          154.0,
          159.0,
          167.0,
          168.0,
          174.0,
          175.0,
          184.0,
          185.0,
          194.0,
          193.0,
          205.0,
          211.0,
          224.0,
          224.0,
          234.0,
          246.0,
          258.0,
          260.0,
          261.0,
          270.0,
          298.0,
          300.0,
          334.0,
          343.0,
          359.0,
          383.0,
          393.0,
          399.0
        ]
      ]
    }
  }
}