{
  "bib": {
    "title": "Measurement Of The Neutron Total Cross Section Of Silicon From 5 Ev To 730 Kev.",
    "authors": [
      {
        "name": "D.C.Larson"
      },
      {
        "name": "C.H.Johnson"
      },
      {
        "name": "J.A.Harvey"
      },
      {
        "name": "N.W.Hill"
      }
    ],
    "institutes": [
      {
        "x4_code": "(1USAORL)",
        "free_txt": []
      }
    ],
    "references": {
      "0": [
        {
          "x4_code": "(R,ORNL-TM-5618,197611)",
          "free_txt": [],
          "publication_year": "1976"
        }
      ]
    },
    "facility": {
      "0": [
        {
          "x4_code": "(LINAC,1USAORL)",
          "free_txt": [
            " ORELA"
          ],
          "facility_type": "(LINAC)",
          "insitute": "(1USAORL)"
        }
      ]
    },
    "history": [
      {
        "x4_code": "(19780823C)",
        "free_txt": []
      },
      {
        "x4_code": "(20100714A)",
        "free_txt": [
          " VM:Updated to new date formats,lower case.",
          "            BIB update."
        ]
      }
    ]
  },
  "10779-001": {
    "extra_information": {
      "correction": {
        "0": [
          {
            "x4_code": null,
            "free_txt": [
              "Corrected for deadtime and background effects."
            ]
          }
        ]
      },
      "detector": {
        "0": [
          {
            "x4_code": "(GLASD)",
            "free_txt": [
              " 6Li glass detector for 80-m flight path."
            ]
          },
          {
            "x4_code": "(SCIN)",
            "free_txt": [
              " Ne-110 detector for 200-m flight path."
            ]
          }
        ]
      },
      "facility": {
        "0": [
          {
            "x4_code": "(LINAC,1USAORL)",
            "free_txt": [
              " ORELA"
            ]
          }
        ]
      },
      "inc-source": {
        "0": [
          {
            "x4_code": "(EVAP)",
            "free_txt": [
              " Electrons on tantalum target."
            ]
          }
        ]
      },
      "method": {
        "0": [
          {
            "x4_code": "(TOF)",
            "free_txt": [
              " Time-of-flight. 80-m and 200-m flight paths."
            ]
          }
        ]
      },
      "sample": {
        "0": [
          {
            "x4_code": null,
            "free_txt": [
              "Sample thicknesses used in atoms/b -",
              " E-min      E-max      F.P.(m) Thickness",
              "   5.12  eV  38.66 keV   80.    0.07462",
              "  38.73 keV  38.95 keV  200.    0.03762",
              "  38.96 keV  67.46 keV   80.    0.07462",
              "  67.54 keV 727.9  keV  200.    0.03762"
            ]
          }
        ]
      },
      "status": {
        "0": [
          {
            "x4_code": "(APRVD)",
            "free_txt": [
              " Approved by D.C.Larson, 1978/10/2."
            ]
          }
        ]
      }
    }
  },
  "10779-002": {
    "reaction": {
      "0": {
        "x4_code": "(14-SI-0(N,TOT),,SIG)",
        "0": {
          "code": [
            "14-SI-0",
            [
              "N,TOT"
            ],
            ",,SIG"
          ],
          "type": null,
          "target": "14-SI-0",
          "process": "N,TOT",
          "sf49": ",,SIG",
          "sf4": null,
          "sf5": null,
          "sf6": "SIG",
          "sf7": null,
          "sf8": null,
          "sf9": null
        },
        "type": null,
        "free_text": ""
      }
    },
    "extra_information": {
      "err-analys": {
        "0": [
          {
            "x4_code": "(ERR-S)",
            "free_txt": [
              " Data errors given are statistical errors only"
            ]
          },
          {
            "x4_code": "(ERR-SYS)",
            "free_txt": [
              " Estimated systematic uncertainty."
            ]
          }
        ]
      },
      "status": {
        "0": [
          {
            "x4_code": "(TABLE)",
            "free_txt": [
              " Data received on magnetic tape, D.C. Larson,",
              "        1976/6."
            ]
          }
        ]
      }
    },
    "common": {
      "heads": [
        "ERR-SYS"
      ],
      "units": [
        "PER-CENT"
      ],
      "data": [
        [
          3.0
        ]
      ]
    },
    "data": {
      "heads": [
        "EN",
        "DATA",
        "ERR-S"
      ],
      "units": [
        "KEV",
        "B",
        "B"
      ],
      "data": [
        [
          0.0051212,
          0.0055683,
          0.0060766,
          0.0066579,
          0.0071224,
          0.0073016,
          0.0074836,
          0.0076724,
          0.0078686,
          0.0080723,
          0.0082841,
          0.0085043,
          0.0087334,
          0.0089719,
          0.0092203,
          0.0094792,
          0.0097491,
          0.010031,
          0.010325,
          0.010632,
          0.010953,
          0.011289,
          0.01164,
          0.012008,
          0.012394,
          0.012799,
          0.013224,
          0.01367,
          0.01414,
          0.014634,
          0.015154,
          0.015703,
          0.016282,
          0.016894,
          0.017541,
          0.018225,
          0.018951,
          0.01972,
          0.020538,
          0.021408,
          0.022334,
          0.023321,
          0.024375,
          0.025503,
          0.02671,
          0.028006,
          0.029398,
          0.030896,
          0.032512,
          0.034258,
          0.036149,
          0.0382,
          0.040431,
          0.042864,
          0.045523,
          0.048437,
          0.051641,
          0.055173,
          0.05908,
          0.063417,
          0.06825,
          0.073658,
          0.079734,
          0.086595,
          0.092015,
          0.094091,
          0.096191,
          0.098363,
          0.10061,
          0.10293,
          0.10534,
          0.10783,
          0.11041,
          0.11309,
          0.11586,
          0.11873,
          0.12172,
          0.12482,
          0.12803,
          0.13138,
          0.13485,
          0.13847,
          0.14223,
          0.14615,
          0.15024,
          0.15449,
          0.15894,
          0.16357,
          0.16841,
          0.17347,
          0.17876,
          0.1843,
          0.1901,
          0.19617,
          0.20254,
          0.20923,
          0.21625,
          0.22364,
          0.2314,
          0.23958,
          0.24821,
          0.2573,
          0.26691,
          0.27706,
          0.2878,
          0.29918,
          0.31125,
          0.32406,
          0.33769,
          0.35219,
          0.36764,
          0.38413,
          0.40176,
          0.42063,
          0.43684,
          0.44744,
          0.45834,
          0.46966,
          0.48139,
          0.49358,
          0.50623,
          0.51937,
          0.53303,
          0.54724,
          0.56203,
          0.57742,
          0.59345,
          0.61016,
          0.62758,
          0.64577,
          0.66475,
          0.68458,
          0.70532,
          0.72701,
          0.74972,
          0.77351,
          0.79845,
          0.82461,
          0.85208,
          0.88095,
          0.91131,
          0.94327,
          0.97694,
          1.0124,
          1.0499,
          1.0895,
          1.1314,
          1.1757,
          1.2227,
          1.2726,
          1.3256,
          1.382,
          1.442,
          1.506,
          1.5608,
          1.5966,
          1.6333,
          1.6713,
          1.7107,
          1.7515,
          1.7937,
          1.8375,
          1.8829,
          1.93,
          1.9789,
          2.0297,
          2.0824,
          2.1373,
          2.1943,
          2.2537,
          2.3155,
          2.3798,
          2.4469,
          2.5169,
          2.5899,
          2.6662,
          2.7458,
          2.8291,
          2.9162,
          3.0074,
          3.103,
          3.2032,
          3.3083,
          3.4187,
          3.5347,
          3.6567,
          3.7852,
          3.9205,
          4.0632,
          4.2139,
          4.3731,
          4.5415,
          4.7198,
          4.8223,
          4.8414,
          4.8605,
          4.8797,
          4.8991,
          4.9185,
          4.9303,
          4.9342,
          4.9381,
          4.942,
          4.946,
          4.9499,
          4.9539,
          4.9578,
          4.9618,
          4.9647,
          4.9667,
          4.9687,
          4.9707,
          4.9727,
          4.9746,
          4.9766,
          4.9786,
          4.9806,
          4.9826,
          4.9846,
          4.9866,
          4.9886,
          4.9906,
          4.9926,
          4.9946,
          4.9966,
          4.9986,
          5.0016,
          5.0056,
          5.0096,
          5.0136,
          5.0176,
          5.0216,
          5.0257,
          5.0346,
          5.0449,
          5.055,
          5.0652,
          5.0754,
          5.1094,
          5.1678,
          5.2271,
          5.2875,
          5.349,
          5.4115,
          5.4752,
          5.54,
          5.6059,
          5.673,
          5.7413,
          5.8109,
          5.8817,
          5.9539,
          6.0274,
          6.1022,
          6.1785,
          6.2561,
          6.3353,
          6.416,
          6.4982,
          6.582,
          6.6675,
          6.7546,
          6.8434,
          6.934,
          7.0265,
          7.1207,
          7.2169,
          7.3151,
          7.4152,
          7.5175,
          7.6219,
          7.7284,
          7.8372,
          7.9483,
          8.0618,
          8.1778,
          8.2963,
          8.4173,
          8.541,
          8.6675,
          8.7968,
          8.9291,
          9.0643,
          9.2026,
          9.3441,
          9.4889,
          9.6371,
          9.7888,
          9.9441,
          10.103,
          10.266,
          10.433,
          10.604,
          10.779,
          10.959,
          11.143,
          11.331,
          11.525,
          11.724,
          11.927,
          12.137,
          12.351,
          12.572,
          12.798,
          13.031,
          13.27,
          13.515,
          13.768,
          14.015,
          14.17,
          14.304,
          14.441,
          14.579,
          14.72,
          14.862,
          15.007,
          15.154,
          15.302,
          15.454,
          15.607,
          15.763,
          15.921,
          16.081,
          16.244,
          16.409,
          16.577,
          16.747,
          16.92,
          17.096,
          17.275,
          17.456,
          17.64,
          17.827,
          18.017,
          18.21,
          18.407,
          18.606,
          18.809,
          19.015,
          19.225,
          19.438,
          19.654,
          19.874,
          20.098,
          20.326,
          20.557,
          20.793,
          21.033,
          21.276,
          21.524,
          21.777,
          22.034,
          22.295,
          22.561,
          22.832,
          23.108,
          23.389,
          23.675,
          23.966,
          24.263,
          24.565,
          24.873,
          25.187,
          25.507,
          25.833,
          26.165,
          26.504,
          26.849,
          27.201,
          27.56,
          27.926,
          28.299,
          28.681,
          29.069,
          29.466,
          29.871,
          30.284,
          30.706,
          31.137,
          31.577,
          32.026,
          32.485,
          32.954,
          33.434,
          33.923,
          34.424,
          34.936,
          35.459,
          35.994,
          36.364,
          36.561,
          36.76,
          36.96,
          37.162,
          37.365,
          37.571,
          37.778,
          37.986,
          38.197,
          38.329,
          38.382,
          38.435,
          38.489,
          38.542,
          38.596,
          38.628,
          38.639,
          38.65,
          38.66,
          38.747,
          38.768,
          38.776,
          38.785,
          38.793,
          38.802,
          38.81,
          38.819,
          38.827,
          38.836,
          38.844,
          38.853,
          38.861,
          38.87,
          38.879,
          38.887,
          38.896,
          38.904,
          38.913,
          38.921,
          38.943,
          38.974,
          39.007,
          39.029,
          39.04,
          39.05,
          39.083,
          39.138,
          39.193,
          39.248,
          39.303,
          39.358,
          39.497,
          39.72,
          39.945,
          40.171,
          40.4,
          40.631,
          40.864,
          41.099,
          41.335,
          41.574,
          41.815,
          42.058,
          42.303,
          42.551,
          42.8,
          43.052,
          43.306,
          43.562,
          43.82,
          44.081,
          44.344,
          44.61,
          44.878,
          45.148,
          45.421,
          45.696,
          45.973,
          46.254,
          46.537,
          46.822,
          47.11,
          47.401,
          47.694,
          47.99,
          48.289,
          48.591,
          48.895,
          49.203,
          49.513,
          49.826,
          50.143,
          50.462,
          50.784,
          51.11,
          51.438,
          51.77,
          52.105,
          52.443,
          52.785,
          53.043,
          53.216,
          53.391,
          53.566,
          53.741,
          53.918,
          54.096,
          54.274,
          54.391,
          54.445,
          54.499,
          54.553,
          54.607,
          54.661,
          54.715,
          54.77,
          54.824,
          54.879,
          54.933,
          54.97,
          54.988,
          55.006,
          55.024,
          55.043,
          55.061,
          55.079,
          55.098,
          55.116,
          55.134,
          55.153,
          55.171,
          55.189,
          55.208,
          55.226,
          55.244,
          55.263,
          55.281,
          55.299,
          55.318,
          55.336,
          55.355,
          55.373,
          55.392,
          55.41,
          55.428,
          55.447,
          55.465,
          55.484,
          55.502,
          55.521,
          55.539,
          55.558,
          55.576,
          55.595,
          55.614,
          55.632,
          55.651,
          55.669,
          55.688,
          55.706,
          55.725,
          55.744,
          55.762,
          55.781,
          55.8,
          55.818,
          55.837,
          55.856,
          55.874,
          55.893,
          55.912,
          55.93,
          55.949,
          55.968,
          55.987,
          56.005,
          56.024,
          56.043,
          56.062,
          56.08,
          56.099,
          56.118,
          56.137,
          56.156,
          56.175,
          56.193,
          56.212,
          56.231,
          56.25,
          56.269,
          56.288,
          56.307,
          56.326,
          56.344,
          56.363,
          56.382,
          56.401,
          56.42,
          56.439,
          56.458,
          56.477,
          56.496,
          56.515,
          56.534,
          56.553,
          56.572,
          56.591,
          56.61,
          56.629,
          56.648,
          56.668,
          56.687,
          56.706,
          56.725,
          56.763,
          56.821,
          56.878,
          56.936,
          56.993,
          57.051,
          57.109,
          57.167,
          57.225,
          57.283,
          57.342,
          57.4,
          57.458,
          57.517,
          57.575,
          57.703,
          57.899,
          58.097,
          58.296,
          58.495,
          58.696,
          58.898,
          59.101,
          59.304,
          59.509,
          59.715,
          59.922,
          60.13,
          60.34,
          60.55,
          60.761,
          60.974,
          61.187,
          61.402,
          61.618,
          61.835,
          62.053,
          62.272,
          62.493,
          62.715,
          62.937,
          63.161,
          63.387,
          63.613,
          63.841,
          64.07,
          64.3,
          64.531,
          64.764,
          64.997,
          65.233,
          65.469,
          65.707,
          65.946,
          66.186,
          66.367,
          66.488,
          66.61,
          66.731,
          66.853,
          66.976,
          67.099,
          67.222,
          67.308,
          67.358,
          67.407,
          67.457,
          67.583,
          67.638,
          67.668,
          67.688,
          67.697,
          67.707,
          67.717,
          67.727,
          67.737,
          67.746,
          67.756,
          67.766,
          67.776,
          67.786,
          67.795,
          67.84,
          67.921,
          68.022,
          68.072,
          68.121,
          68.245,
          68.444,
          68.644,
          68.845,
          69.046,
          69.249,
          69.452,
          69.656,
          69.861,
          70.068,
          70.275,
          70.483,
          70.691,
          70.901,
          71.112,
          71.324,
          71.536,
          71.75,
          71.964,
          72.18,
          72.396,
          72.614,
          72.832,
          73.051,
          73.272,
          73.493,
          73.715,
          73.939,
          74.163,
          74.389,
          74.615,
          74.843,
          75.071,
          75.301,
          75.532,
          75.763,
          75.996,
          76.23,
          76.465,
          76.701,
          76.938,
          77.176,
          77.415,
          77.656,
          77.897,
          78.14,
          78.384,
          78.629,
          78.875,
          79.122,
          79.371,
          79.62,
          79.871,
          80.123,
          80.376,
          80.631,
          80.886,
          81.143,
          81.401,
          81.66,
          81.921,
          82.183,
          82.446,
          82.71,
          82.976,
          83.242,
          83.51,
          83.78,
          84.051,
          84.323,
          84.596,
          84.871,
          85.147,
          85.424,
          85.703,
          85.983,
          86.264,
          86.547,
          86.832,
          87.117,
          87.404,
          87.693,
          87.983,
          88.274,
          88.567,
          88.861,
          89.157,
          89.454,
          89.753,
          90.053,
          90.355,
          90.658,
          90.963,
          91.269,
          91.577,
          91.886,
          92.197,
          92.51,
          92.824,
          93.14,
          93.457,
          93.776,
          94.097,
          94.419,
          94.743,
          95.069,
          95.396,
          95.725,
          96.056,
          96.388,
          96.722,
          97.058,
          97.396,
          97.735,
          98.076,
          98.419,
          98.764,
          99.11,
          99.459,
          99.809,
          100.16,
          100.52,
          100.87,
          101.23,
          101.59,
          101.95,
          102.31,
          102.68,
          103.05,
          103.42,
          103.79,
          104.16,
          104.54,
          104.91,
          105.29,
          105.67,
          106.06,
          106.44,
          106.83,
          107.22,
          107.61,
          108.01,
          108.4,
          108.8,
          109.2,
          109.61,
          110.01,
          110.42,
          110.83,
          111.24,
          111.66,
          112.07,
          112.49,
          112.91,
          113.34,
          113.76,
          114.19,
          114.62,
          115.06,
          115.49,
          115.93,
          116.37,
          116.81,
          117.26,
          117.71,
          118.16,
          118.61,
          119.07,
          119.53,
          119.99,
          120.45,
          120.92,
          121.39,
          121.86,
          122.34,
          122.82,
          123.3,
          123.78,
          124.27,
          124.76,
          125.25,
          125.74,
          126.24,
          126.74,
          127.25,
          127.75,
          128.26,
          128.78,
          129.29,
          129.81,
          130.33,
          130.86,
          131.39,
          131.92,
          132.46,
          133.0,
          133.54,
          134.08,
          134.63,
          135.18,
          135.74,
          136.3,
          136.86,
          137.42,
          137.99,
          138.57,
          139.14,
          139.72,
          140.31,
          140.89,
          141.48,
          142.08,
          142.68,
          143.28,
          143.88,
          144.49,
          145.11,
          145.73,
          146.35,
          146.97,
          147.6,
          148.24,
          148.87,
          149.52,
          150.16,
          150.81,
          151.47,
          152.12,
          152.79,
          153.45,
          154.13,
          154.8,
          155.48,
          156.17,
          156.86,
          157.55,
          160.95,
          161.31,
          161.67,
          162.03,
          162.4,
          162.76,
          163.13,
          163.5,
          163.86,
          164.23,
          164.61,
          164.98,
          165.35,
          165.73,
          166.1,
          166.48,
          166.86,
          167.24,
          167.62,
          168.01,
          168.39,
          168.77,
          169.16,
          169.55,
          169.94,
          170.33,
          170.72,
          171.12,
          171.51,
          171.91,
          172.3,
          172.7,
          173.1,
          173.51,
          173.91,
          174.31,
          174.72,
          175.13,
          175.54,
          175.95,
          176.36,
          176.77,
          177.18,
          177.6,
          178.02,
          178.44,
          178.86,
          179.28,
          179.7,
          180.13,
          180.56,
          180.98,
          181.41,
          181.84,
          182.28,
          182.71,
          183.15,
          183.58,
          184.02,
          184.46,
          184.9,
          185.35,
          185.79,
          186.24,
          186.69,
          187.14,
          187.59,
          188.04,
          188.5,
          188.95,
          189.41,
          189.87,
          190.33,
          190.8,
          191.26,
          191.73,
          192.2,
          192.67,
          193.14,
          193.61,
          194.09,
          194.57,
          195.04,
          195.53,
          196.01,
          196.49,
          196.98,
          197.47,
          197.95,
          198.45,
          198.94,
          199.43,
          199.93,
          200.43,
          200.93,
          201.43,
          201.94,
          202.44,
          202.95,
          203.46,
          203.97,
          204.49,
          205.0,
          205.52,
          206.04,
          206.56,
          207.09,
          207.61,
          208.14,
          208.67,
          209.2,
          209.74,
          210.27,
          210.81,
          211.35,
          211.89,
          212.44,
          212.98,
          213.53,
          214.08,
          214.64,
          215.19,
          215.75,
          216.31,
          216.87,
          217.43,
          218.0,
          218.56,
          219.14,
          219.71,
          220.28,
          220.86,
          221.44,
          222.02,
          222.6,
          223.19,
          223.78,
          224.37,
          224.96,
          225.56,
          226.15,
          226.75,
          227.66,
          228.87,
          230.1,
          231.33,
          232.58,
          233.83,
          235.1,
          236.37,
          237.66,
          238.95,
          240.26,
          241.58,
          242.9,
          244.24,
          245.59,
          246.95,
          248.33,
          249.71,
          251.11,
          252.51,
          253.93,
          255.36,
          256.81,
          258.26,
          259.73,
          261.21,
          262.7,
          264.21,
          265.73,
          267.26,
          268.81,
          270.37,
          271.94,
          273.53,
          275.13,
          276.74,
          278.37,
          280.01,
          281.67,
          283.34,
          285.03,
          286.73,
          288.45,
          290.18,
          291.93,
          293.7,
          295.48,
          297.28,
          299.09,
          300.92,
          302.77,
          304.63,
          306.51,
          308.41,
          310.33,
          312.26,
          314.22,
          316.19,
          318.18,
          320.19,
          322.21,
          324.26,
          326.33,
          328.41,
          330.52,
          332.65,
          339.7,
          340.81,
          341.92,
          343.04,
          344.16,
          345.28,
          346.42,
          347.56,
          348.7,
          349.85,
          351.01,
          352.17,
          352.89,
          353.19,
          353.48,
          353.66,
          353.71,
          353.77,
          353.83,
          353.89,
          353.95,
          354.01,
          354.07,
          354.12,
          354.18,
          354.24,
          354.3,
          354.36,
          354.42,
          354.48,
          354.54,
          354.59,
          354.65,
          354.71,
          354.77,
          354.83,
          354.89,
          354.95,
          355.01,
          355.06,
          355.12,
          355.18,
          355.24,
          355.42,
          355.71,
          356.01,
          356.75,
          357.94,
          359.74,
          362.15,
          364.59,
          367.06,
          369.55,
          372.06,
          374.6,
          377.17,
          379.76,
          382.38,
          385.03,
          387.71,
          390.41,
          393.14,
          395.9,
          398.69,
          401.51,
          404.36,
          407.24,
          410.15,
          413.09,
          416.06,
          419.07,
          422.11,
          425.18,
          428.29,
          431.42,
          434.6,
          437.81,
          441.05,
          444.33,
          447.65,
          451.01,
          454.4,
          457.83,
          461.3,
          464.81,
          468.36,
          471.96,
          475.59,
          479.26,
          482.98,
          486.74,
          490.55,
          494.4,
          498.29,
          502.23,
          506.22,
          510.26,
          514.35,
          518.48,
          521.61,
          523.72,
          525.84,
          527.97,
          529.14,
          529.36,
          529.57,
          529.79,
          530.0,
          530.22,
          530.43,
          530.65,
          530.86,
          531.02,
          531.13,
          531.24,
          531.35,
          531.46,
          531.56,
          531.67,
          531.78,
          531.89,
          532.0,
          532.1,
          532.21,
          532.32,
          532.43,
          532.54,
          532.64,
          532.75,
          532.86,
          532.97,
          533.08,
          533.19,
          533.29,
          533.4,
          533.51,
          533.62,
          533.73,
          533.84,
          534.0,
          534.22,
          534.44,
          534.65,
          534.87,
          535.09,
          535.31,
          535.53,
          535.74,
          536.4,
          537.5,
          538.59,
          539.7,
          540.8,
          541.91,
          543.03,
          544.14,
          545.26,
          546.38,
          547.51,
          548.64,
          549.77,
          554.06,
          554.63,
          555.21,
          555.78,
          556.36,
          556.94,
          557.52,
          558.1,
          558.68,
          559.26,
          559.85,
          560.43,
          561.01,
          561.6,
          562.19,
          562.77,
          563.36,
          563.95,
          564.54,
          565.13,
          565.73,
          566.32,
          566.91,
          567.51,
          568.1,
          568.7,
          569.3,
          569.9,
          570.5,
          571.1,
          571.7,
          572.3,
          572.9,
          573.51,
          574.11,
          574.72,
          575.33,
          575.94,
          576.54,
          577.15,
          577.77,
          578.38,
          578.99,
          579.6,
          580.22,
          580.84,
          581.45,
          582.07,
          582.69,
          583.31,
          583.93,
          584.55,
          584.93,
          585.05,
          585.18,
          585.3,
          585.42,
          585.55,
          585.67,
          585.8,
          585.92,
          586.05,
          586.17,
          586.3,
          586.42,
          586.55,
          586.67,
          586.8,
          586.92,
          587.05,
          587.18,
          587.3,
          587.43,
          587.55,
          587.68,
          587.8,
          587.93,
          588.05,
          588.18,
          588.3,
          588.43,
          588.56,
          588.68,
          588.81,
          588.93,
          589.06,
          589.19,
          589.31,
          589.44,
          589.56,
          589.69,
          589.82,
          589.94,
          590.07,
          590.19,
          590.32,
          590.45,
          590.57,
          590.7,
          590.83,
          590.95,
          591.08,
          591.21,
          591.33,
          591.46,
          591.59,
          591.71,
          591.84,
          591.97,
          592.09,
          592.22,
          592.35,
          592.47,
          592.86,
          593.49,
          594.13,
          594.77,
          595.41,
          596.05,
          596.69,
          597.33,
          597.97,
          598.62,
          599.26,
          599.91,
          600.56,
          600.95,
          601.08,
          601.21,
          601.34,
          601.47,
          601.6,
          601.73,
          601.86,
          601.99,
          602.12,
          602.25,
          602.38,
          602.51,
          602.64,
          602.77,
          602.9,
          603.03,
          603.16,
          603.29,
          603.42,
          603.55,
          603.68,
          604.07,
          604.73,
          605.38,
          607.03,
          609.67,
          612.33,
          615.01,
          617.7,
          620.42,
          623.15,
          625.9,
          628.67,
          631.45,
          634.26,
          637.08,
          639.92,
          642.78,
          645.66,
          648.56,
          651.48,
          654.42,
          657.38,
          660.36,
          663.36,
          666.38,
          669.42,
          672.48,
          675.57,
          678.67,
          681.8,
          684.94,
          688.11,
          691.3,
          694.52,
          697.75,
          701.01,
          704.29,
          707.6,
          710.93,
          714.28,
          717.65,
          721.05,
          724.47,
          727.92
        ],
        [
          2.2717,
          2.0602,
          2.0769,
          2.0891,
          2.0236,
          2.1454,
          1.9912,
          1.9847,
          2.0984,
          2.1067,
          2.1556,
          2.1784,
          1.9983,
          1.9933,
          2.1215,
          2.0543,
          2.1267,
          2.0454,
          2.1584,
          2.183,
          2.139,
          2.0434,
          2.1292,
          2.0793,
          2.0591,
          2.0756,
          2.0579,
          2.0979,
          2.0406,
          2.1524,
          2.0859,
          2.1589,
          2.0482,
          2.1041,
          2.1719,
          2.0837,
          2.042,
          2.128,
          2.1019,
          2.1097,
          2.0649,
          2.0424,
          2.0702,
          2.0393,
          2.0939,
          2.0958,
          2.1799,
          2.0761,
          2.1027,
          2.1035,
          2.1084,
          2.0845,
          2.0768,
          2.076,
          2.1158,
          2.1367,
          2.088,
          2.0778,
          2.0903,
          2.0716,
          2.1154,
          2.1189,
          2.0847,
          2.1121,
          2.0307,
          2.0347,
          2.052,
          2.0521,
          2.1023,
          2.0671,
          2.1151,
          2.1193,
          2.1537,
          2.0849,
          2.1092,
          2.1202,
          2.1254,
          2.0736,
          2.129,
          2.0974,
          2.0383,
          2.1072,
          2.0627,
          2.0536,
          2.0838,
          2.1116,
          2.0627,
          2.102,
          2.1275,
          2.1011,
          2.1003,
          2.0498,
          2.0946,
          2.0493,
          2.0592,
          2.1174,
          2.1206,
          2.0911,
          2.0863,
          2.047,
          2.1434,
          2.0953,
          2.0802,
          2.0831,
          2.0665,
          2.0763,
          2.116,
          2.0998,
          2.0967,
          2.0829,
          2.1207,
          2.1296,
          2.0732,
          2.0748,
          2.132,
          2.0941,
          2.1102,
          2.0966,
          2.0585,
          2.0635,
          2.0534,
          2.0722,
          2.098,
          2.0401,
          2.0919,
          2.0667,
          2.0575,
          2.0621,
          2.1072,
          2.0355,
          2.1124,
          2.0545,
          2.0787,
          2.1252,
          2.0351,
          2.0976,
          2.0817,
          2.0574,
          2.0982,
          2.0694,
          2.0773,
          2.0902,
          2.101,
          2.0863,
          2.0813,
          2.0406,
          2.0537,
          2.0659,
          2.066,
          2.0642,
          2.1268,
          2.0592,
          2.0533,
          2.0678,
          2.0892,
          2.0902,
          2.0923,
          2.1086,
          2.1177,
          2.1014,
          2.0638,
          2.0538,
          2.1001,
          2.1207,
          2.0634,
          2.0317,
          2.0579,
          2.1021,
          2.085,
          2.0528,
          2.119,
          2.024,
          2.0916,
          2.0357,
          2.1656,
          2.0667,
          2.0836,
          2.0853,
          2.0946,
          2.0416,
          2.0761,
          2.094,
          2.0633,
          2.0838,
          2.0339,
          2.1132,
          2.0941,
          2.0551,
          2.0345,
          2.0381,
          2.0531,
          2.0152,
          2.073,
          2.1042,
          2.128,
          2.1779,
          2.0632,
          2.205,
          2.2096,
          1.7283,
          2.1364,
          2.1235,
          2.1175,
          2.126,
          2.0309,
          2.2097,
          1.864,
          2.2304,
          2.2761,
          2.8991,
          2.793,
          2.7691,
          4.1747,
          4.367,
          5.227,
          4.9093,
          4.1234,
          3.4109,
          2.4998,
          2.6895,
          1.5475,
          2.6288,
          2.0742,
          1.9235,
          2.1587,
          2.2948,
          2.145,
          1.8253,
          1.9871,
          2.1374,
          2.0891,
          2.1106,
          2.0355,
          2.1134,
          1.949,
          2.1234,
          2.0576,
          1.8941,
          2.1332,
          2.0092,
          2.0697,
          2.1645,
          2.0688,
          2.066,
          2.0681,
          2.0899,
          2.0626,
          2.0354,
          2.0946,
          2.104,
          2.1663,
          1.9995,
          2.0987,
          2.0844,
          2.0682,
          2.1034,
          1.9981,
          2.0522,
          1.9756,
          1.9935,
          2.0123,
          2.0984,
          2.0343,
          2.1394,
          2.0785,
          1.9883,
          1.9861,
          2.0208,
          2.0644,
          2.0904,
          1.987,
          2.0359,
          2.0761,
          2.0927,
          2.0184,
          1.9763,
          2.106,
          2.0393,
          2.0584,
          1.9962,
          1.9489,
          2.0756,
          1.9843,
          2.0978,
          1.9206,
          2.034,
          1.9704,
          2.0137,
          1.9431,
          2.0177,
          1.9724,
          2.0439,
          1.9952,
          2.031,
          1.951,
          1.9097,
          2.0299,
          2.0039,
          2.0495,
          1.9778,
          1.8903,
          2.0248,
          2.0276,
          1.8679,
          2.0346,
          1.9059,
          1.9555,
          1.9163,
          2.0182,
          2.0547,
          2.0131,
          1.9319,
          2.0211,
          1.8769,
          1.9803,
          1.9201,
          1.9812,
          2.0322,
          1.9427,
          2.0082,
          1.9306,
          2.002,
          1.9767,
          1.8271,
          1.8927,
          1.9412,
          1.9593,
          1.9137,
          1.9027,
          1.883,
          2.0704,
          1.8871,
          1.9886,
          1.9747,
          1.9467,
          1.9586,
          1.9832,
          2.0133,
          1.798,
          1.9933,
          1.8713,
          1.9278,
          2.0227,
          1.8885,
          1.868,
          1.8834,
          1.9397,
          2.0176,
          1.8096,
          1.8372,
          1.8707,
          1.9137,
          1.9345,
          1.869,
          1.9578,
          1.9272,
          1.7772,
          1.8738,
          1.7608,
          1.8423,
          1.786,
          1.7704,
          1.8703,
          1.7905,
          1.8477,
          1.8509,
          1.8106,
          1.864,
          1.8687,
          1.7087,
          1.7565,
          1.671,
          1.8435,
          1.7011,
          1.6981,
          1.8318,
          1.6404,
          1.9082,
          1.6473,
          1.7671,
          1.7655,
          1.8222,
          1.7764,
          1.7446,
          1.7544,
          1.7101,
          1.5558,
          1.7444,
          1.7168,
          1.6267,
          1.7861,
          1.7092,
          1.7285,
          1.5127,
          1.8271,
          1.6687,
          1.6021,
          1.6194,
          1.7511,
          1.2762,
          1.504,
          1.3551,
          1.6898,
          1.55,
          1.7047,
          2.3148,
          2.2436,
          2.2435,
          1.6784,
          2.5707,
          3.7565,
          5.5529,
          4.0393,
          3.2178,
          6.6705,
          5.0482,
          5.8703,
          4.3901,
          3.1121,
          4.2567,
          4.9183,
          3.8209,
          5.3558,
          3.6112,
          4.3727,
          3.1371,
          1.5376,
          1.6841,
          2.1649,
          2.3783,
          1.892,
          1.5975,
          1.8141,
          1.7816,
          2.0031,
          1.7273,
          2.0822,
          1.5366,
          1.6755,
          1.4088,
          1.6295,
          1.7533,
          1.6796,
          1.6715,
          1.6417,
          1.5998,
          1.6173,
          1.6531,
          1.7122,
          1.4427,
          1.6585,
          1.62,
          1.4947,
          1.5244,
          1.657,
          1.4192,
          1.4585,
          1.4601,
          1.3942,
          1.648,
          1.3804,
          1.4382,
          1.3479,
          1.3177,
          1.4642,
          1.3426,
          1.3444,
          1.1513,
          1.2049,
          1.4675,
          1.0663,
          1.1782,
          1.3965,
          1.0477,
          1.0773,
          0.92399,
          1.1343,
          1.2625,
          0.96038,
          1.1776,
          0.91347,
          1.0233,
          0.86419,
          0.87704,
          0.94126,
          0.62134,
          0.69133,
          0.47706,
          0.63357,
          0.60545,
          0.14085,
          0.34841,
          0.32679,
          0.22792,
          0.17368,
          0.41328,
          0.19451,
          0.25246,
          0.47599,
          1.0227,
          0.8163,
          0.86463,
          0.54554,
          1.0009,
          1.057,
          1.6203,
          1.603,
          1.9579,
          2.4518,
          3.7948,
          3.6904,
          3.4564,
          4.0746,
          3.9465,
          3.7404,
          4.974,
          4.5399,
          5.2807,
          5.9642,
          6.0424,
          6.3349,
          7.1572,
          7.6588,
          7.3299,
          10.126,
          10.192,
          10.477,
          11.444,
          12.155,
          13.428,
          14.606,
          15.161,
          17.194,
          18.028,
          20.157,
          21.131,
          22.126,
          25.7,
          26.302,
          28.311,
          30.466,
          32.681,
          34.586,
          35.514,
          38.382,
          43.082,
          44.672,
          44.083,
          45.506,
          44.234,
          49.182,
          46.731,
          43.907,
          44.712,
          47.638,
          44.082,
          41.749,
          40.32,
          40.561,
          37.552,
          36.666,
          36.667,
          33.625,
          33.251,
          31.85,
          30.907,
          28.995,
          29.146,
          28.129,
          26.929,
          26.257,
          23.54,
          24.316,
          22.927,
          21.773,
          21.391,
          20.819,
          20.201,
          18.82,
          18.689,
          18.374,
          18.49,
          18.367,
          16.449,
          15.92,
          15.474,
          15.145,
          14.121,
          13.693,
          13.852,
          13.181,
          13.641,
          13.566,
          12.287,
          11.285,
          12.111,
          11.742,
          11.767,
          11.272,
          11.256,
          11.045,
          9.6346,
          9.3998,
          9.352,
          9.977,
          8.6965,
          8.7504,
          8.9787,
          8.2595,
          7.9746,
          7.204,
          7.0129,
          6.7185,
          6.862,
          6.6231,
          6.1861,
          5.6005,
          5.3507,
          5.6789,
          5.2831,
          5.0969,
          4.3459,
          4.3387,
          4.2385,
          4.0327,
          3.7845,
          3.6265,
          3.4369,
          3.3188,
          3.0864,
          3.0722,
          3.1003,
          2.9071,
          2.7993,
          2.8169,
          2.872,
          2.8676,
          2.6884,
          2.6242,
          2.7746,
          2.6026,
          2.6048,
          2.5904,
          2.2823,
          2.5341,
          2.7392,
          2.4004,
          2.3167,
          2.4489,
          2.2953,
          2.2862,
          2.3025,
          2.2287,
          2.4059,
          2.1723,
          2.1528,
          1.8639,
          1.9083,
          2.3006,
          1.8876,
          2.0629,
          2.0127,
          2.4323,
          2.1096,
          2.1342,
          1.9793,
          2.2921,
          2.1347,
          2.5143,
          1.7936,
          2.4979,
          2.5054,
          2.6543,
          2.2945,
          3.3475,
          4.2956,
          3.9049,
          5.8822,
          8.5886,
          8.1514,
          7.5118,
          4.6068,
          2.4671,
          2.4505,
          2.3315,
          2.6703,
          2.0282,
          1.9557,
          2.2253,
          1.9416,
          2.3439,
          2.1585,
          2.165,
          1.9121,
          2.0897,
          2.2149,
          2.1211,
          2.2541,
          2.0414,
          2.0899,
          2.2087,
          1.879,
          2.478,
          1.7439,
          1.8994,
          1.843,
          2.0601,
          1.8622,
          2.0648,
          1.7997,
          2.4864,
          1.9636,
          1.7669,
          1.9817,
          1.9378,
          2.1927,
          1.9385,
          1.7914,
          2.052,
          1.9974,
          2.0286,
          1.8318,
          1.8763,
          1.6893,
          1.7817,
          1.7859,
          1.6067,
          1.9025,
          2.0,
          2.0207,
          1.8849,
          1.7077,
          1.7435,
          1.6739,
          1.546,
          1.7675,
          1.7861,
          1.7098,
          1.608,
          1.8284,
          1.7926,
          1.6171,
          1.9275,
          1.5305,
          1.9711,
          1.5133,
          1.7,
          1.7103,
          1.562,
          1.8548,
          1.318,
          1.9044,
          1.616,
          1.6541,
          1.7089,
          1.3391,
          1.5578,
          1.7783,
          1.6113,
          1.7739,
          1.5902,
          1.5024,
          1.4529,
          1.6871,
          1.7732,
          1.6072,
          1.3444,
          1.3592,
          1.7227,
          1.5062,
          1.551,
          1.583,
          1.544,
          1.3838,
          1.7237,
          1.3364,
          1.6077,
          1.6465,
          1.4711,
          1.5613,
          1.708,
          1.4432,
          1.3561,
          1.5296,
          1.3962,
          1.2625,
          1.4799,
          1.4324,
          1.5968,
          1.1467,
          1.3614,
          1.6243,
          1.474,
          1.6522,
          1.4391,
          1.4092,
          1.3586,
          1.2909,
          1.224,
          1.3694,
          1.1124,
          1.1113,
          1.2661,
          1.4734,
          1.3249,
          1.3398,
          1.1434,
          1.2314,
          1.5548,
          1.4328,
          1.1719,
          1.3209,
          1.2522,
          1.2875,
          1.3868,
          0.97828,
          1.2702,
          1.5202,
          1.1384,
          1.0972,
          1.0245,
          1.1144,
          1.0736,
          1.2514,
          1.1693,
          1.0704,
          1.1828,
          0.98993,
          1.0642,
          1.303,
          1.0525,
          1.1982,
          1.0951,
          1.046,
          1.1196,
          1.0332,
          1.054,
          1.0281,
          1.123,
          0.83942,
          0.90615,
          0.69739,
          1.1657,
          0.85859,
          1.0101,
          0.85121,
          0.91069,
          0.87332,
          0.97406,
          1.0277,
          0.66198,
          0.86687,
          0.82464,
          0.99607,
          0.79247,
          0.65363,
          0.91476,
          0.68767,
          0.74144,
          0.8266,
          0.83431,
          0.71938,
          0.63141,
          0.70488,
          0.80182,
          0.91405,
          0.87302,
          0.756,
          0.65441,
          0.6597,
          0.66531,
          0.6654,
          0.62562,
          0.47446,
          0.46961,
          0.59285,
          0.59415,
          0.63435,
          0.57382,
          0.41582,
          0.44944,
          0.71336,
          0.47625,
          0.40984,
          0.61134,
          0.39248,
          0.50296,
          0.45043,
          0.31949,
          0.503,
          0.33748,
          0.48872,
          0.51488,
          0.41226,
          0.41041,
          0.10827,
          0.041659,
          0.21955,
          0.28882,
          0.31404,
          0.37324,
          0.26461,
          0.26368,
          0.34762,
          0.28644,
          0.26321,
          0.22251,
          0.22808,
          0.1556,
          0.29532,
          0.18721,
          0.15931,
          0.23956,
          0.14751,
          0.26115,
          0.42515,
          0.42019,
          0.36178,
          0.24742,
          0.4788,
          0.31205,
          0.42395,
          0.50061,
          0.76591,
          0.60111,
          0.52659,
          0.76982,
          1.3171,
          1.4607,
          1.239,
          1.4545,
          1.5341,
          1.624,
          1.5673,
          1.7219,
          1.9711,
          1.9575,
          2.0765,
          2.1939,
          2.1593,
          2.5481,
          2.5131,
          2.7577,
          2.7202,
          2.8799,
          3.31,
          3.2101,
          3.4143,
          3.5429,
          3.9305,
          4.1127,
          4.379,
          4.4978,
          5.0169,
          5.0672,
          5.5651,
          5.6587,
          5.8656,
          6.06,
          6.4564,
          6.7092,
          7.0509,
          7.1936,
          7.7529,
          7.9662,
          8.1884,
          8.4645,
          8.7845,
          9.1609,
          9.493,
          9.7771,
          10.177,
          10.393,
          10.915,
          10.968,
          11.443,
          11.655,
          12.054,
          12.253,
          12.583,
          12.793,
          13.098,
          13.2,
          13.417,
          13.77,
          14.022,
          13.93,
          13.792,
          14.131,
          14.286,
          14.284,
          14.458,
          14.31,
          14.346,
          14.176,
          14.304,
          14.164,
          14.359,
          14.316,
          13.892,
          13.861,
          13.775,
          13.813,
          13.658,
          13.495,
          13.526,
          13.349,
          13.25,
          13.172,
          12.903,
          12.879,
          12.733,
          12.723,
          12.47,
          12.29,
          12.25,
          11.905,
          11.986,
          11.712,
          11.691,
          11.392,
          11.405,
          11.316,
          11.164,
          11.104,
          10.752,
          10.798,
          10.753,
          10.453,
          10.287,
          10.323,
          10.009,
          10.111,
          9.8261,
          9.7331,
          9.6844,
          9.6186,
          9.4022,
          9.3127,
          9.1424,
          9.2024,
          9.0354,
          8.9031,
          8.8636,
          8.8252,
          8.8262,
          8.5978,
          8.5356,
          8.3087,
          8.3667,
          8.2566,
          8.3143,
          8.3469,
          8.1403,
          7.9954,
          7.8967,
          7.8288,
          7.7585,
          7.7662,
          7.6701,
          7.715,
          7.5164,
          7.3146,
          7.3414,
          7.3897,
          7.2995,
          7.3843,
          7.2108,
          7.0759,
          7.0844,
          6.9242,
          6.7114,
          6.6608,
          6.6419,
          6.5459,
          6.5709,
          6.2708,
          6.1721,
          6.2046,
          6.0179,
          5.9024,
          5.9069,
          5.8241,
          5.7014,
          5.6696,
          5.5561,
          5.5609,
          5.5251,
          5.4886,
          5.4014,
          5.3984,
          5.319,
          5.252,
          5.1273,
          5.2176,
          5.0758,
          5.032,
          4.9402,
          4.8795,
          4.8753,
          4.7875,
          4.7155,
          4.7568,
          4.7109,
          4.7,
          4.5975,
          4.6139,
          4.5123,
          4.5279,
          4.4155,
          4.4886,
          4.4711,
          4.4171,
          4.2902,
          4.2493,
          4.181,
          4.2247,
          4.2111,
          4.2934,
          4.3353,
          4.2209,
          4.1518,
          4.0315,
          4.0309,
          4.0099,
          4.053,
          4.0054,
          3.9231,
          3.9401,
          3.9,
          3.8555,
          3.8298,
          3.8437,
          3.7358,
          3.7699,
          3.796,
          3.7464,
          3.7963,
          3.6397,
          3.7694,
          3.7891,
          3.6565,
          3.7518,
          3.5233,
          3.6515,
          3.5532,
          3.6947,
          3.4648,
          3.3694,
          3.4756,
          3.8139,
          3.9808,
          3.7117,
          3.3734,
          3.9107,
          3.3912,
          3.9857,
          4.2399,
          4.3346,
          5.1689,
          6.0518,
          6.4546,
          6.5123,
          6.1215,
          4.8202,
          4.5616,
          4.2116,
          3.9064,
          3.2153,
          3.2988,
          3.455,
          3.1173,
          3.8078,
          3.6039,
          3.5296,
          3.7702,
          3.8972,
          3.0929,
          3.5744,
          3.5914,
          3.6306,
          3.6778,
          3.5583,
          3.5801,
          3.5682,
          3.6237,
          3.4942,
          3.5969,
          3.508,
          3.3727,
          3.422,
          3.4858,
          3.5254,
          3.6345,
          3.5812,
          3.5601,
          3.5116,
          3.4611,
          3.4752,
          3.427,
          3.4488,
          3.3712,
          3.3962,
          3.4687,
          3.3755,
          3.3445,
          3.3292,
          3.312,
          3.2772,
          3.2547,
          3.1217,
          3.141,
          3.1743,
          3.196,
          3.1342,
          3.0877,
          3.0328,
          3.0129,
          3.0286,
          3.0245,
          3.0567,
          3.0513,
          2.9783,
          2.9631,
          2.9857,
          2.9746,
          2.9187,
          2.9561,
          2.9186,
          2.8594,
          2.8776,
          2.8525,
          2.8541,
          2.8272,
          2.8423,
          2.9079,
          2.9232,
          3.0211,
          3.0396,
          2.8586,
          3.2611,
          2.8168,
          3.1927,
          3.3289,
          3.4794,
          3.5318,
          3.5284,
          3.6989,
          3.7119,
          4.1354,
          4.9069,
          5.1877,
          5.6432,
          6.4174,
          8.0315,
          9.3178,
          11.185,
          13.754,
          13.933,
          14.076,
          12.05,
          9.1538,
          7.9721,
          6.5038,
          5.5223,
          4.8344,
          4.2569,
          3.7026,
          3.6413,
          3.5772,
          3.6954,
          3.2487,
          2.9824,
          2.8274,
          3.2032,
          3.188,
          3.0603,
          3.1337,
          2.9644,
          3.0478,
          3.056,
          3.1321,
          2.8602,
          2.9589,
          2.8901,
          2.8605,
          2.9372,
          3.0937,
          2.8838,
          2.9406,
          3.0866,
          3.1444,
          3.1567,
          3.2036,
          3.1856,
          3.334,
          4.1431,
          4.3886,
          4.4822,
          4.5206,
          4.753,
          4.8574,
          5.3545,
          5.6175,
          5.8429,
          6.2329,
          6.8744,
          7.1342,
          7.9448,
          8.7084,
          9.2206,
          10.017,
          10.469,
          11.322,
          11.664,
          11.83,
          11.951,
          11.694,
          11.417,
          11.004,
          10.341,
          9.931,
          9.4433,
          8.6575,
          8.2745,
          7.6745,
          7.2407,
          7.0012,
          6.357,
          6.2419,
          5.9299,
          5.6059,
          5.587,
          5.2882,
          5.0217,
          4.9253,
          4.5958,
          4.5881,
          4.5244,
          4.4429,
          4.2853,
          4.1015,
          4.2239,
          3.7963,
          3.6781,
          3.708,
          3.618,
          3.6375,
          3.9688,
          3.883,
          3.0684,
          3.6225,
          3.1657,
          3.6111,
          3.6317,
          3.5508,
          3.754,
          4.1336,
          4.0455,
          5.3187,
          6.1143,
          7.2384,
          7.4914,
          6.8857,
          5.3474,
          4.0933,
          3.5837,
          3.9334,
          3.4435,
          3.1836,
          3.5302,
          3.1242,
          3.3283,
          3.0622,
          3.2707,
          3.0848,
          2.2515,
          2.3526,
          2.7349,
          2.388,
          2.811,
          2.0658,
          1.6351,
          1.604,
          1.7163,
          2.3722,
          2.8349,
          4.4868,
          5.1406,
          5.3411,
          5.002,
          5.1678,
          4.3183,
          4.8555,
          4.2865,
          4.3539,
          4.63,
          3.9755,
          4.3524,
          4.2708,
          3.9178,
          4.3347,
          3.7448,
          3.5979,
          4.044,
          3.7902,
          4.4061,
          4.0739,
          3.4141,
          3.6433,
          3.7373,
          3.7381,
          3.2797,
          3.637,
          3.6038,
          3.1729,
          3.3705,
          3.4336,
          3.2596,
          3.3576,
          3.7027,
          3.2151,
          3.5221,
          3.4241,
          3.7923,
          3.5931,
          3.8192,
          3.7262,
          4.1363,
          5.0789,
          5.4143,
          4.375,
          3.7287,
          3.8234,
          3.1514,
          3.4654,
          2.9764,
          3.1759,
          3.2879,
          3.1526,
          3.4258,
          3.3648,
          3.5142,
          3.2398,
          3.1549,
          3.3467,
          3.1219,
          3.1004,
          3.0161,
          3.0159,
          3.0046,
          2.9563,
          3.1041,
          2.8963,
          2.7716,
          2.7905,
          2.7603,
          2.817,
          2.7514,
          2.6882,
          2.8657,
          3.0048,
          3.0375,
          3.0479,
          2.8366,
          2.9091,
          2.8479,
          2.642,
          2.667,
          2.6819,
          2.7559,
          2.7145,
          2.7137,
          2.5728,
          2.7509,
          2.549,
          2.429,
          2.5221,
          2.6487,
          2.5699,
          2.6706,
          2.5753,
          2.5781,
          2.602,
          2.5083,
          2.5174,
          2.403,
          2.4529
        ],
        [
          0.062431,
          0.056386,
          0.051268,
          0.04669,
          0.080933,
          0.084014,
          0.081627,
          0.07986,
          0.077791,
          0.076106,
          0.074249,
          0.072351,
          0.070794,
          0.068925,
          0.067307,
          0.065617,
          0.064202,
          0.062408,
          0.061033,
          0.059547,
          0.058101,
          0.056575,
          0.055225,
          0.053781,
          0.05248,
          0.051209,
          0.049908,
          0.048551,
          0.047295,
          0.04617,
          0.044979,
          0.043803,
          0.042722,
          0.041559,
          0.040509,
          0.03944,
          0.038492,
          0.037399,
          0.036416,
          0.035503,
          0.034475,
          0.033552,
          0.032684,
          0.031758,
          0.030951,
          0.0301,
          0.029303,
          0.028458,
          0.0277,
          0.026894,
          0.026135,
          0.025375,
          0.024654,
          0.023962,
          0.023257,
          0.022603,
          0.021921,
          0.021287,
          0.020654,
          0.020016,
          0.019418,
          0.018822,
          0.01823,
          0.017678,
          0.032463,
          0.034054,
          0.033747,
          0.033446,
          0.033192,
          0.03292,
          0.032705,
          0.032402,
          0.03215,
          0.031892,
          0.03157,
          0.031362,
          0.031029,
          0.030738,
          0.030452,
          0.030151,
          0.029875,
          0.029669,
          0.029447,
          0.029199,
          0.029016,
          0.02878,
          0.028523,
          0.028305,
          0.028074,
          0.02785,
          0.027582,
          0.027364,
          0.027094,
          0.026829,
          0.0266,
          0.026388,
          0.026159,
          0.025914,
          0.025701,
          0.025428,
          0.025233,
          0.024969,
          0.024731,
          0.024516,
          0.024299,
          0.024086,
          0.023903,
          0.023865,
          0.023927,
          0.023384,
          0.022974,
          0.022697,
          0.022449,
          0.022199,
          0.030112,
          0.030935,
          0.030747,
          0.030564,
          0.030409,
          0.030256,
          0.030095,
          0.029971,
          0.02981,
          0.029648,
          0.02944,
          0.029476,
          0.02916,
          0.028975,
          0.02884,
          0.028638,
          0.028498,
          0.028325,
          0.028168,
          0.028005,
          0.027851,
          0.02768,
          0.027547,
          0.027346,
          0.027207,
          0.027013,
          0.026883,
          0.026696,
          0.026527,
          0.026368,
          0.026206,
          0.026163,
          0.02589,
          0.025658,
          0.025347,
          0.024839,
          0.024968,
          0.024951,
          0.024822,
          0.024657,
          0.03343,
          0.034357,
          0.034256,
          0.035037,
          0.034313,
          0.03399,
          0.033829,
          0.033701,
          0.033666,
          0.033559,
          0.033495,
          0.033529,
          0.033345,
          0.033143,
          0.032969,
          0.032847,
          0.032791,
          0.032593,
          0.032853,
          0.032568,
          0.032161,
          0.031911,
          0.031652,
          0.031294,
          0.031248,
          0.031174,
          0.031276,
          0.031055,
          0.031406,
          0.030789,
          0.030649,
          0.030524,
          0.030318,
          0.030219,
          0.030112,
          0.029938,
          0.029755,
          0.02958,
          0.02944,
          0.092773,
          0.093009,
          0.093498,
          0.09285,
          0.093061,
          0.092638,
          0.20683,
          0.20753,
          0.20555,
          0.20693,
          0.20858,
          0.20749,
          0.2077,
          0.20699,
          0.20621,
          0.29179,
          0.29163,
          0.29309,
          0.29434,
          0.29988,
          0.29895,
          0.30185,
          0.30482,
          0.29944,
          0.2976,
          0.2921,
          0.29048,
          0.29064,
          0.29303,
          0.2924,
          0.29519,
          0.29259,
          0.28638,
          0.20585,
          0.2061,
          0.20523,
          0.20613,
          0.20674,
          0.20761,
          0.20622,
          0.1263,
          0.12973,
          0.12977,
          0.12981,
          0.13022,
          0.05476,
          0.054675,
          0.05467,
          0.054492,
          0.054579,
          0.054616,
          0.054306,
          0.054164,
          0.054066,
          0.05392,
          0.053712,
          0.054019,
          0.059401,
          0.054518,
          0.053608,
          0.053611,
          0.053522,
          0.053356,
          0.053326,
          0.053291,
          0.053228,
          0.052954,
          0.053067,
          0.052979,
          0.052794,
          0.052863,
          0.052631,
          0.052422,
          0.052413,
          0.052109,
          0.052124,
          0.052024,
          0.052079,
          0.0519,
          0.051777,
          0.051986,
          0.051683,
          0.051467,
          0.052034,
          0.051956,
          0.051299,
          0.051215,
          0.051213,
          0.05109,
          0.05091,
          0.050974,
          0.050728,
          0.050291,
          0.050173,
          0.05041,
          0.050334,
          0.050396,
          0.050088,
          0.050076,
          0.04986,
          0.049827,
          0.049716,
          0.049485,
          0.049299,
          0.049261,
          0.049031,
          0.048956,
          0.048798,
          0.048808,
          0.048408,
          0.048656,
          0.048659,
          0.048374,
          0.048273,
          0.047971,
          0.056751,
          0.067973,
          0.067343,
          0.067019,
          0.067114,
          0.067127,
          0.066951,
          0.066714,
          0.066746,
          0.066325,
          0.066499,
          0.066205,
          0.066229,
          0.06594,
          0.065992,
          0.065867,
          0.066109,
          0.066121,
          0.07104,
          0.065798,
          0.065477,
          0.065222,
          0.065213,
          0.065208,
          0.065205,
          0.064718,
          0.064496,
          0.064738,
          0.064596,
          0.064603,
          0.064425,
          0.064476,
          0.064211,
          0.06446,
          0.064064,
          0.064103,
          0.063631,
          0.063654,
          0.063543,
          0.06367,
          0.063308,
          0.062565,
          0.062488,
          0.062671,
          0.062883,
          0.062422,
          0.062708,
          0.062514,
          0.062348,
          0.062131,
          0.062203,
          0.062389,
          0.062004,
          0.061664,
          0.062505,
          0.064883,
          0.061543,
          0.061427,
          0.061376,
          0.061523,
          0.061178,
          0.060692,
          0.06062,
          0.060017,
          0.06034,
          0.060308,
          0.061089,
          0.060217,
          0.069147,
          0.060179,
          0.059595,
          0.059359,
          0.059441,
          0.05971,
          0.059965,
          0.060576,
          0.0618,
          0.063064,
          0.063766,
          0.063518,
          0.063574,
          0.10293,
          0.10243,
          0.10194,
          0.10167,
          0.10092,
          0.10056,
          0.10094,
          0.10174,
          0.098783,
          0.097793,
          0.19627,
          0.19676,
          0.19603,
          0.19504,
          0.19549,
          0.19567,
          0.43696,
          0.43728,
          0.43422,
          0.43604,
          0.61338,
          1.2021,
          1.1608,
          1.1641,
          1.2152,
          1.2777,
          1.3137,
          1.2877,
          1.198,
          1.3151,
          1.2638,
          1.1866,
          1.1762,
          1.1854,
          1.1549,
          1.1532,
          1.1651,
          1.1562,
          1.118,
          1.0906,
          0.57161,
          0.25338,
          0.25181,
          0.4327,
          0.42862,
          0.4336,
          0.19469,
          0.19285,
          0.19228,
          0.19329,
          0.19265,
          0.19355,
          0.097442,
          0.096879,
          0.096393,
          0.09631,
          0.096509,
          0.097328,
          0.099238,
          0.10237,
          0.10503,
          0.10519,
          0.10346,
          0.1022,
          0.10139,
          0.10032,
          0.099482,
          0.099025,
          0.09838,
          0.097886,
          0.097825,
          0.096944,
          0.096791,
          0.096421,
          0.096771,
          0.095996,
          0.095868,
          0.095569,
          0.095663,
          0.095477,
          0.09509,
          0.094819,
          0.095381,
          0.10005,
          0.095104,
          0.094655,
          0.094281,
          0.093947,
          0.093771,
          0.093342,
          0.092745,
          0.092749,
          0.092938,
          0.092721,
          0.092556,
          0.091959,
          0.091765,
          0.091535,
          0.091786,
          0.091344,
          0.090964,
          0.12848,
          0.12808,
          0.12864,
          0.12823,
          0.12916,
          0.12913,
          0.12804,
          0.1282,
          0.23485,
          0.23432,
          0.23714,
          0.235,
          0.23501,
          0.23377,
          0.23514,
          0.23668,
          0.23608,
          0.23796,
          0.23808,
          0.4182,
          0.41961,
          0.42057,
          0.42884,
          0.42472,
          0.42748,
          0.42416,
          0.42906,
          0.42507,
          0.43321,
          0.42647,
          0.43699,
          0.44172,
          0.4451,
          0.45077,
          0.47513,
          0.47164,
          0.47857,
          0.48232,
          0.48851,
          0.51441,
          0.51742,
          0.53702,
          0.55884,
          0.56795,
          0.59781,
          0.61845,
          0.62896,
          0.71028,
          0.72138,
          0.76353,
          0.83005,
          0.8904,
          0.93346,
          0.9683,
          1.0615,
          1.2548,
          1.3156,
          1.2972,
          1.3581,
          1.2917,
          1.5238,
          1.414,
          1.2938,
          1.3129,
          1.4504,
          1.2952,
          1.192,
          1.1435,
          1.1568,
          1.0467,
          0.98819,
          1.0083,
          0.91833,
          0.90853,
          0.87031,
          0.82362,
          0.78784,
          0.7849,
          0.76827,
          0.73899,
          0.7121,
          0.66848,
          0.68579,
          0.65672,
          0.63069,
          0.62184,
          0.6123,
          0.60243,
          0.57783,
          0.5745,
          0.56959,
          0.56965,
          0.56468,
          0.54622,
          0.53139,
          0.5371,
          0.52428,
          0.50542,
          0.5036,
          0.50771,
          0.50456,
          0.50528,
          0.50859,
          0.48458,
          0.48271,
          0.49239,
          0.48416,
          0.49232,
          0.48127,
          0.47987,
          0.46931,
          0.47047,
          0.46464,
          0.45538,
          0.26925,
          0.26178,
          0.26029,
          0.26042,
          0.25688,
          0.25692,
          0.25265,
          0.25144,
          0.2526,
          0.2517,
          0.25189,
          0.2486,
          0.24793,
          0.24687,
          0.24663,
          0.13392,
          0.13339,
          0.13218,
          0.13172,
          0.13202,
          0.13104,
          0.13039,
          0.13038,
          0.12932,
          0.12925,
          0.12934,
          0.12854,
          0.12849,
          0.12866,
          0.12838,
          0.12836,
          0.12753,
          0.12819,
          0.12711,
          0.12733,
          0.12759,
          0.12717,
          0.12773,
          0.12655,
          0.12675,
          0.12659,
          0.12701,
          0.12664,
          0.12599,
          0.1261,
          0.12508,
          0.12558,
          0.12579,
          0.12558,
          0.12561,
          0.12491,
          0.12464,
          0.12381,
          0.12858,
          0.12726,
          0.17799,
          0.18052,
          0.17898,
          0.17692,
          0.17712,
          0.17615,
          0.17671,
          0.17725,
          0.27542,
          0.27955,
          0.27865,
          0.27864,
          0.28619,
          0.47728,
          0.43986,
          0.72578,
          0.70929,
          0.73004,
          0.80241,
          0.91197,
          0.97647,
          0.91142,
          0.83392,
          0.78692,
          0.76316,
          0.7453,
          0.76232,
          0.29349,
          0.26417,
          0.36506,
          0.34467,
          0.33034,
          0.17896,
          0.17436,
          0.16665,
          0.17932,
          0.17401,
          0.17586,
          0.1701,
          0.1712,
          0.16397,
          0.16768,
          0.15538,
          0.17883,
          0.17133,
          0.16796,
          0.16341,
          0.165,
          0.16398,
          0.16235,
          0.16411,
          0.15969,
          0.15739,
          0.15977,
          0.15947,
          0.15977,
          0.15296,
          0.15458,
          0.1564,
          0.15913,
          0.15668,
          0.15791,
          0.15551,
          0.15114,
          0.14743,
          0.15114,
          0.15325,
          0.14044,
          0.16393,
          0.14886,
          0.15654,
          0.15551,
          0.15464,
          0.1481,
          0.14848,
          0.14531,
          0.15037,
          0.14697,
          0.1461,
          0.14328,
          0.14383,
          0.14726,
          0.14227,
          0.15488,
          0.1483,
          0.14536,
          0.14786,
          0.14048,
          0.14454,
          0.1427,
          0.1354,
          0.13834,
          0.14278,
          0.14186,
          0.1426,
          0.14054,
          0.13819,
          0.13925,
          0.13531,
          0.13615,
          0.14714,
          0.13417,
          0.14094,
          0.13773,
          0.13539,
          0.13418,
          0.13964,
          0.13449,
          0.13989,
          0.13671,
          0.13581,
          0.13775,
          0.13272,
          0.13356,
          0.14237,
          0.13704,
          0.1392,
          0.13266,
          0.1327,
          0.12808,
          0.13582,
          0.13141,
          0.13039,
          0.13179,
          0.13009,
          0.13432,
          0.12662,
          0.12686,
          0.12834,
          0.12545,
          0.12644,
          0.12166,
          0.12857,
          0.12557,
          0.12612,
          0.12512,
          0.12902,
          0.12946,
          0.12287,
          0.12308,
          0.12525,
          0.12489,
          0.12464,
          0.12679,
          0.13616,
          0.12589,
          0.12322,
          0.12367,
          0.11877,
          0.13033,
          0.12357,
          0.12634,
          0.12554,
          0.12381,
          0.12375,
          0.12359,
          0.12748,
          0.12478,
          0.1256,
          0.12637,
          0.1239,
          0.12557,
          0.12742,
          0.11859,
          0.12786,
          0.1217,
          0.11957,
          0.12399,
          0.12123,
          0.11604,
          0.11988,
          0.12118,
          0.11427,
          0.11597,
          0.11847,
          0.11917,
          0.1164,
          0.11507,
          0.11013,
          0.11128,
          0.11379,
          0.11436,
          0.11408,
          0.13792,
          0.12007,
          0.11236,
          0.10853,
          0.10271,
          0.10188,
          0.10409,
          0.10533,
          0.10183,
          0.10127,
          0.0997,
          0.098939,
          0.097191,
          0.10393,
          0.10135,
          0.10048,
          0.10032,
          0.10115,
          0.10222,
          0.10144,
          0.097415,
          0.097457,
          0.095201,
          0.096795,
          0.096247,
          0.095921,
          0.095414,
          0.093061,
          0.092201,
          0.09166,
          0.092705,
          0.088966,
          0.09169,
          0.089249,
          0.087358,
          0.089763,
          0.09098,
          0.08877,
          0.087605,
          0.088457,
          0.08914,
          0.086182,
          0.088461,
          0.087449,
          0.084737,
          0.082222,
          0.085788,
          0.085474,
          0.084927,
          0.085111,
          0.086358,
          0.084867,
          0.081389,
          0.085028,
          0.083973,
          0.083351,
          0.086241,
          0.084415,
          0.082962,
          0.084434,
          0.083074,
          0.084437,
          0.084867,
          0.081092,
          0.080846,
          0.083103,
          0.080814,
          0.082215,
          0.081406,
          0.080329,
          0.08092,
          0.07962,
          0.080253,
          0.08006,
          0.077762,
          0.077297,
          0.078998,
          0.07813,
          0.076104,
          0.077209,
          0.078241,
          0.07757,
          0.075671,
          0.080538,
          0.077671,
          0.099238,
          0.096944,
          0.098956,
          0.097358,
          0.096977,
          0.097134,
          0.097929,
          0.093409,
          0.094507,
          0.093242,
          0.094542,
          0.095758,
          0.094697,
          0.096292,
          0.09347,
          0.097519,
          0.092317,
          0.092816,
          0.095364,
          0.096763,
          0.095144,
          0.09439,
          0.094462,
          0.092877,
          0.093556,
          0.095655,
          0.094449,
          0.093704,
          0.095383,
          0.092568,
          0.094199,
          0.092223,
          0.095834,
          0.095033,
          0.094018,
          0.092862,
          0.093628,
          0.093759,
          0.094235,
          0.095045,
          0.093883,
          0.097293,
          0.095404,
          0.095104,
          0.094063,
          0.098243,
          0.096798,
          0.097763,
          0.097873,
          0.096978,
          0.096466,
          0.096215,
          0.095613,
          0.095524,
          0.09758,
          0.095787,
          0.096292,
          0.096672,
          0.094998,
          0.09636,
          0.095806,
          0.095312,
          0.096227,
          0.095545,
          0.095938,
          0.098976,
          0.096056,
          0.094427,
          0.094119,
          0.095024,
          0.092581,
          0.092308,
          0.09377,
          0.092265,
          0.09295,
          0.092912,
          0.09447,
          0.093765,
          0.094538,
          0.092718,
          0.093251,
          0.089531,
          0.091131,
          0.091745,
          0.089571,
          0.092299,
          0.090257,
          0.088767,
          0.088589,
          0.088904,
          0.09012,
          0.089594,
          0.089523,
          0.09069,
          0.090093,
          0.091126,
          0.091882,
          0.09383,
          0.093475,
          0.090753,
          0.091383,
          0.090312,
          0.089928,
          0.088307,
          0.086873,
          0.086687,
          0.088026,
          0.08619,
          0.085265,
          0.084588,
          0.085641,
          0.084114,
          0.085171,
          0.082049,
          0.082371,
          0.082788,
          0.083075,
          0.082471,
          0.081841,
          0.082808,
          0.083432,
          0.08258,
          0.082229,
          0.082517,
          0.082806,
          0.080054,
          0.079252,
          0.080338,
          0.080143,
          0.080411,
          0.080396,
          0.079321,
          0.080603,
          0.079795,
          0.07647,
          0.077454,
          0.080047,
          0.07968,
          0.078578,
          0.078994,
          0.077736,
          0.075726,
          0.055359,
          0.054909,
          0.054075,
          0.053828,
          0.053245,
          0.054223,
          0.053616,
          0.052853,
          0.053093,
          0.052264,
          0.052711,
          0.052057,
          0.052505,
          0.050868,
          0.051797,
          0.051133,
          0.050909,
          0.050507,
          0.051053,
          0.051028,
          0.050147,
          0.050459,
          0.050237,
          0.04975,
          0.049311,
          0.049223,
          0.048935,
          0.048625,
          0.048874,
          0.048755,
          0.047951,
          0.048201,
          0.049539,
          0.048674,
          0.04783,
          0.047819,
          0.047454,
          0.048168,
          0.047881,
          0.04767,
          0.04705,
          0.047646,
          0.050367,
          0.047576,
          0.047204,
          0.046414,
          0.046346,
          0.046242,
          0.045449,
          0.04554,
          0.046026,
          0.046061,
          0.045266,
          0.045062,
          0.044834,
          0.044994,
          0.044913,
          0.044788,
          0.044679,
          0.044392,
          0.04372,
          0.043574,
          0.043405,
          0.043595,
          0.042921,
          0.042479,
          0.059843,
          0.059379,
          0.058687,
          0.058772,
          0.059411,
          0.058913,
          0.058733,
          0.0593,
          0.059295,
          0.058062,
          0.058131,
          0.05798,
          0.11713,
          0.11577,
          0.11599,
          0.26099,
          0.26139,
          0.26079,
          0.26179,
          0.26075,
          0.25993,
          0.25863,
          0.25688,
          0.25922,
          0.26325,
          0.26527,
          0.26741,
          0.26829,
          0.26638,
          0.26088,
          0.25742,
          0.25494,
          0.25655,
          0.25864,
          0.2592,
          0.26099,
          0.26193,
          0.26365,
          0.26556,
          0.26492,
          0.26398,
          0.26199,
          0.26147,
          0.11507,
          0.11475,
          0.11557,
          0.066433,
          0.067703,
          0.04787,
          0.048045,
          0.057129,
          0.060275,
          0.058981,
          0.058314,
          0.058442,
          0.059875,
          0.060296,
          0.058224,
          0.056796,
          0.056743,
          0.056032,
          0.055385,
          0.05456,
          0.05403,
          0.053248,
          0.052904,
          0.052902,
          0.052608,
          0.053766,
          0.054484,
          0.05493,
          0.055202,
          0.056017,
          0.056362,
          0.058374,
          0.058581,
          0.056865,
          0.056515,
          0.055851,
          0.055457,
          0.054753,
          0.054975,
          0.054417,
          0.054237,
          0.054058,
          0.053934,
          0.054132,
          0.053943,
          0.053512,
          0.053946,
          0.053831,
          0.054393,
          0.054864,
          0.054325,
          0.054452,
          0.054452,
          0.054519,
          0.049687,
          0.049184,
          0.069703,
          0.070943,
          0.072328,
          0.0737,
          0.2317,
          0.23052,
          0.23082,
          0.23101,
          0.23269,
          0.22966,
          0.22683,
          0.22609,
          0.22809,
          0.32426,
          0.32532,
          0.32303,
          0.32421,
          0.3307,
          0.33676,
          0.34246,
          0.33936,
          0.33857,
          0.33883,
          0.34682,
          0.34788,
          0.34657,
          0.3378,
          0.33067,
          0.32755,
          0.32784,
          0.32871,
          0.32881,
          0.33059,
          0.32782,
          0.32603,
          0.32633,
          0.32525,
          0.32323,
          0.32302,
          0.31955,
          0.22552,
          0.22594,
          0.22582,
          0.22716,
          0.22726,
          0.22363,
          0.22185,
          0.22677,
          0.23179,
          0.10113,
          0.10102,
          0.1021,
          0.10242,
          0.10035,
          0.10109,
          0.098556,
          0.10012,
          0.097602,
          0.097017,
          0.099879,
          0.09978,
          0.10106,
          0.13971,
          0.14043,
          0.14034,
          0.14297,
          0.14246,
          0.14196,
          0.14272,
          0.14431,
          0.14568,
          0.14379,
          0.1421,
          0.14308,
          0.14764,
          0.146,
          0.1499,
          0.14734,
          0.1496,
          0.14733,
          0.14941,
          0.15015,
          0.15264,
          0.14935,
          0.14653,
          0.14867,
          0.15229,
          0.14758,
          0.1482,
          0.14579,
          0.14558,
          0.14429,
          0.14439,
          0.14269,
          0.14359,
          0.14205,
          0.14022,
          0.1409,
          0.13932,
          0.13758,
          0.13787,
          0.13856,
          0.13877,
          0.13674,
          0.13456,
          0.13419,
          0.13279,
          0.13306,
          0.13419,
          0.13474,
          0.13405,
          0.13613,
          0.13471,
          0.13463,
          0.30402,
          0.30744,
          0.31005,
          0.30927,
          0.30749,
          0.31119,
          0.31665,
          0.32522,
          0.32935,
          0.32658,
          0.32979,
          0.33285,
          0.33811,
          0.34757,
          0.35159,
          0.34997,
          0.34133,
          0.33746,
          0.33065,
          0.32988,
          0.32615,
          0.32478,
          0.31883,
          0.3185,
          0.31075,
          0.30644,
          0.30157,
          0.30194,
          0.30157,
          0.30352,
          0.30594,
          0.30462,
          0.30146,
          0.3037,
          0.30486,
          0.30441,
          0.30491,
          0.30603,
          0.30988,
          0.31103,
          0.31108,
          0.30949,
          0.30939,
          0.31084,
          0.31322,
          0.31258,
          0.31403,
          0.31411,
          0.31066,
          0.30733,
          0.30806,
          0.30911,
          0.30769,
          0.3073,
          0.30921,
          0.30888,
          0.30915,
          0.3133,
          0.31172,
          0.31142,
          0.31045,
          0.13801,
          0.13798,
          0.13657,
          0.13992,
          0.13724,
          0.13944,
          0.1386,
          0.14049,
          0.14063,
          0.14483,
          0.14117,
          0.13882,
          0.13886,
          0.30887,
          0.311,
          0.31194,
          0.31452,
          0.31199,
          0.31169,
          0.31118,
          0.30916,
          0.30636,
          0.30485,
          0.30323,
          0.29963,
          0.30101,
          0.30056,
          0.3006,
          0.30632,
          0.31009,
          0.31285,
          0.30995,
          0.30919,
          0.30667,
          0.31091,
          0.14012,
          0.14122,
          0.14302,
          0.070132,
          0.07093,
          0.071957,
          0.073742,
          0.074418,
          0.074894,
          0.074437,
          0.074017,
          0.072479,
          0.077988,
          0.13747,
          0.13256,
          0.13067,
          0.12795,
          0.12644,
          0.1287,
          0.10587,
          0.10045,
          0.097846,
          0.09687,
          0.095801,
          0.093752,
          0.095171,
          0.091703,
          0.091593,
          0.089678,
          0.088489,
          0.088484,
          0.089399,
          0.08666,
          0.085945,
          0.086796,
          0.087277,
          0.086186,
          0.087503,
          0.084531,
          0.08417,
          0.084028,
          0.083617,
          0.084853,
          0.082481
        ]
      ]
    }
  }
}