{
  "bib": {
    "title": " Subthermal Fission Cross-Section Measurements For U-233,U-235 And Pu-239",
    "authors": [
      {
        "name": "C.Wagemans"
      },
      {
        "name": "P.Schillebeeckx"
      },
      {
        "name": "A.Deruytter"
      },
      {
        "name": "R.Barthelemy"
      }
    ],
    "institutes": [
      {
        "x4_code": "(2ZZZGEL)",
        "free_txt": []
      }
    ],
    "references": {
      "0": [
        {
          "x4_code": "(C,88MITO,,91,1988)",
          "free_txt": [],
          "publication_year": "1988"
        }
      ]
    },
    "facility": {
      "0": [
        {
          "x4_code": "(LINAC,2ZZZGEL)",
          "free_txt": [
            " Gelina"
          ],
          "facility_type": "(LINAC)",
          "insitute": "(2ZZZGEL)"
        }
      ]
    },
    "history": [
      {
        "x4_code": "(19880809C)",
        "free_txt": [
          " IF."
        ]
      },
      {
        "x4_code": "(19890530U)",
        "free_txt": [
          " IF.  Page added to the reference"
        ]
      },
      {
        "x4_code": "(20180829A)",
        "free_txt": [
          " SD:Updated to new date formats,lower case.",
          "MONIT (ERR) added to Subents 002-004. Small",
          "corrections in all Subents. ERR-T->ERR-1 in ERR-ANALYS."
        ]
      }
    ]
  },
  "22080-001": {
    "extra_information": {
      "detector": {
        "0": [
          {
            "x4_code": "(SIBAR)",
            "free_txt": [
              " 2 Large surface barrier detectors,20 cm2"
            ]
          }
        ]
      },
      "err-analys": {
        "0": [
          {
            "x4_code": "(ERR-1)",
            "free_txt": [
              " Standard deviations which includes all errors",
              " except the uncertainty on the normalization integrals."
            ]
          },
          {
            "x4_code": "(MONIT-ERR)",
            "free_txt": [
              " uncertainty in the normalization"
            ]
          }
        ]
      },
      "facility": {
        "0": [
          {
            "x4_code": "(LINAC,2ZZZGEL)",
            "free_txt": [
              " Gelina"
            ]
          }
        ]
      },
      "inc-source": {
        "0": [
          {
            "x4_code": "(PHOTO)",
            "free_txt": []
          }
        ]
      },
      "method": {
        "0": [
          {
            "x4_code": "(TOF)",
            "free_txt": [
              " 8.2m flight path"
            ]
          }
        ]
      },
      "monitor": {
        "0": [
          {
            "x4_code": "(3-LI-6(N,T)2-HE-4,,SIG)",
            "free_txt": [
              " neutron flux determination"
            ]
          }
        ]
      },
      "part-det": {
        "0": [
          {
            "x4_code": "(FF)",
            "free_txt": []
          }
        ]
      },
      "status": {
        "0": [
          {
            "x4_code": "(TABLE)",
            "free_txt": [
              " Data were taken from private communication"
            ]
          }
        ]
      }
    }
  },
  "22080-002": {
    "reaction": {
      "0": {
        "x4_code": "(92-U-233(N,F),,SIG)",
        "0": {
          "code": [
            "92-U-233",
            [
              "N,F"
            ],
            ",,SIG"
          ],
          "type": null,
          "target": "92-U-233",
          "process": "N,F",
          "sf49": ",,SIG",
          "sf4": null,
          "sf5": null,
          "sf6": "SIG",
          "sf7": null,
          "sf8": null,
          "sf9": null
        },
        "type": null,
        "free_text": ""
      }
    },
    "extra_information": {
      "monit-ref": {
        "0": [
          {
            "x4_code": "(,,3,ENDF/B-VII.0,,1990)",
            "free_txt": [
              "  A normalization was done in the thermal region",
              " relative to the zero fission cross-sections values",
              " proposed for the ENDF-B6 file for U233."
            ]
          }
        ]
      },
      "monitor": {
        "0": [
          {
            "x4_code": "(92-U-233(N,F),,SIG)",
            "free_txt": []
          }
        ]
      },
      "sample": {
        "0": [
          {
            "x4_code": null,
            "free_txt": [
              ".The fissile layer were mounted back to back with the",
              " layer of 25 micro-g Li6F/cm2,in the center of a vacuum",
              " chamber. The fissile layers were evaporated homoge-",
              " neously with a thickness of 40 micro-g U233/cm2",
              " (233UF4)"
            ]
          }
        ]
      },
      "status": {
        "0": [
          {
            "x4_code": "(TABLE)",
            "free_txt": [
              " Data were taken from private communication"
            ]
          }
        ]
      }
    },
    "common": {
      "heads": [
        "EN-NRM",
        "MONIT",
        "MONIT-ERR"
      ],
      "units": [
        "EV",
        "B",
        "PER-CENT"
      ],
      "data": [
        [
          0.0253
        ],
        [
          531.14
        ],
        [
          0.25
        ]
      ]
    },
    "data": {
      "heads": [
        "EN",
        "DATA",
        "ERR-1"
      ],
      "units": [
        "EV",
        "B",
        "B"
      ],
      "data": [
        [
          0.0020014,
          0.0020256,
          0.0020502,
          0.0020754,
          0.0021009,
          0.0021204,
          0.0021336,
          0.0021535,
          0.0021806,
          0.0022082,
          0.0022362,
          0.0022649,
          0.0022941,
          0.0023238,
          0.0023542,
          0.0023852,
          0.0024086,
          0.0024245,
          0.0024488,
          0.0024817,
          0.0025151,
          0.0025493,
          0.0025841,
          0.0026062,
          0.0026152,
          0.0026242,
          0.0026331,
          0.002656,
          0.0026931,
          0.002731,
          0.0027696,
          0.0028091,
          0.0028495,
          0.0028907,
          0.0029328,
          0.0029759,
          0.0030199,
          0.0030649,
          0.0031109,
          0.0031579,
          0.003206,
          0.0032552,
          0.0033056,
          0.0033571,
          0.0033898,
          0.003403,
          0.0034164,
          0.0034299,
          0.003464,
          0.0035192,
          0.0035759,
          0.003634,
          0.0036934,
          0.0037387,
          0.0037696,
          0.0038167,
          0.0038807,
          0.0039464,
          0.0040138,
          0.0040828,
          0.0041355,
          0.0041714,
          0.0042078,
          0.0042446,
          0.004301,
          0.0043775,
          0.0044563,
          0.0045165,
          0.0045573,
          0.0046201,
          0.0047055,
          0.0047932,
          0.0048834,
          0.0049762,
          0.0050717,
          0.00517,
          0.005271,
          0.0053355,
          0.0053618,
          0.0053882,
          0.0054148,
          0.0054825,
          0.0055929,
          0.0057069,
          0.0057942,
          0.0058537,
          0.0059142,
          0.0059757,
          0.0060701,
          0.0061989,
          0.0063318,
          0.0064691,
          0.0066108,
          0.0067573,
          0.0068507,
          0.0068889,
          0.0069274,
          0.0069662,
          0.0070251,
          0.0071047,
          0.0071858,
          0.0072682,
          0.0073519,
          0.0074372,
          0.0075239,
          0.0076121,
          0.0077019,
          0.0077933,
          0.0078863,
          0.007981,
          0.0080775,
          0.0081758,
          0.0082757,
          0.0083775,
          0.0084813,
          0.008587,
          0.0086946,
          0.0088044,
          0.0089737,
          0.009206,
          0.0093853,
          0.0095084,
          0.009634,
          0.0097619,
          0.0098924,
          0.010026,
          0.010162,
          0.0103,
          0.010442,
          0.010586,
          0.010734,
          0.010885,
          0.011039,
          0.011196,
          0.011356,
          0.01152,
          0.011645,
          0.01173,
          0.011815,
          0.011902,
          0.012124,
          0.01249,
          0.012774,
          0.01297,
          0.013119,
          0.013221,
          0.013323,
          0.013427,
          0.013694,
          0.01402,
          0.014245,
          0.014476,
          0.014712,
          0.014954,
          0.015202,
          0.015456,
          0.015717,
          0.015985,
          0.016259,
          0.016687,
          0.01728,
          0.017906,
          0.018394,
          0.018733,
          0.019264,
          0.020001,
          0.020781,
          0.021609,
          0.022486,
          0.023418,
          0.02441,
          0.025465,
          0.026152,
          0.026352,
          0.02647,
          0.026588,
          0.02689,
          0.027381,
          0.027885,
          0.028404,
          0.028937,
          0.029485,
          0.030049,
          0.030629,
          0.031226,
          0.031841,
          0.032475,
          0.03296,
          0.033291,
          0.033799,
          0.034492,
          0.035206,
          0.035943,
          0.036703,
          0.037488,
          0.038298,
          0.039134,
          0.039998,
          0.040891,
          0.041815,
          0.04277,
          0.043758,
          0.044518,
          0.045039,
          0.04584,
          0.046937,
          0.047782,
          0.048361,
          0.049253,
          0.050161,
          0.050784,
          0.051744,
          0.053061,
          0.054429,
          0.055305,
          0.055664,
          0.056026,
          0.056392,
          0.057329,
          0.058867,
          0.060055,
          0.060871,
          0.062134,
          0.063423,
          0.064309,
          0.065681,
          0.067082,
          0.068046,
          0.06954,
          0.071598,
          0.073749,
          0.075999,
          0.078353,
          0.080818,
          0.083402,
          0.086111,
          0.088955,
          0.091942,
          0.095082,
          0.098385,
          0.10186,
          0.10553,
          0.1094,
          0.11348,
          0.1178,
          0.12237,
          0.12721,
          0.13234,
          0.13779,
          0.14133,
          0.14243,
          0.14317,
          0.14392,
          0.14582,
          0.14893,
          0.15213,
          0.1546,
          0.15628,
          0.15886,
          0.1624,
          0.16605,
          0.16983,
          0.17374,
          0.17779,
          0.18197,
          0.18631,
          0.19081,
          0.19547,
          0.2003,
          0.20532,
          0.21052,
          0.21593,
          0.22154,
          0.22738,
          0.23345,
          0.23977,
          0.24635,
          0.25321,
          0.26035,
          0.2678,
          0.27557,
          0.28369,
          0.29218,
          0.30104,
          0.31032,
          0.32004,
          0.33022,
          0.34089,
          0.35208,
          0.36384,
          0.3762,
          0.3892,
          0.40288,
          0.41355,
          0.42095,
          0.4325,
          0.44855,
          0.46552,
          0.48346,
          0.50246,
          0.52261,
          0.54399,
          0.56671,
          0.59088,
          0.61664,
          0.64411,
          0.67347,
          0.70487,
          0.72536,
          0.73391,
          0.74262,
          0.75148,
          0.77466,
          0.81351,
          0.85535,
          0.90051,
          0.94934,
          1.0023,
          1.0597,
          1.1223,
          1.1723,
          1.208,
          1.2356,
          1.2474,
          1.2522,
          1.257,
          1.2693,
          1.2891,
          1.3094,
          1.3303,
          1.3516,
          1.3678,
          1.3789,
          1.3958,
          1.4187,
          1.4422,
          1.4662,
          1.4909,
          1.5098,
          1.5226,
          1.5422,
          1.562,
          1.5755,
          1.5961,
          1.6242,
          1.653,
          1.675,
          1.69,
          1.7051,
          1.7205,
          1.7441,
          1.7761,
          1.8091,
          1.8429,
          1.8689,
          1.8865,
          1.9044,
          1.9226,
          1.9504,
          1.9884,
          2.0274,
          2.0676,
          2.1091,
          2.1518,
          2.1957,
          2.2295,
          2.2525,
          2.27,
          2.2818,
          2.2936,
          2.3056,
          2.3177,
          2.3298,
          2.3421,
          2.3544,
          2.3669,
          2.3794,
          2.3921,
          2.4048,
          2.4373,
          2.4904,
          2.5452,
          2.6019,
          2.6605,
          2.7211,
          2.7838,
          2.8486,
          2.8985,
          2.9327,
          2.9853,
          3.0574,
          3.1322,
          3.2097,
          3.2901,
          3.3735,
          3.4602,
          3.5157,
          3.5384,
          3.5614,
          3.5846,
          3.644,
          3.7039,
          3.7285,
          3.7533,
          3.7784,
          3.8427,
          3.9482,
          4.0582,
          4.1728,
          4.2923,
          4.417,
          4.4971,
          4.53,
          4.5632,
          4.5969,
          4.6833,
          4.8256,
          4.9745,
          5.1304,
          5.2937,
          5.4649,
          5.6446,
          5.7844,
          5.8811,
          6.0316,
          6.2403,
          6.3748,
          6.4304,
          6.4868,
          6.5438,
          6.6016,
          6.6602,
          6.7196,
          6.7798,
          6.8408,
          6.9026,
          6.9652,
          7.0288,
          7.0931,
          7.1584,
          7.2246,
          7.2917,
          7.4654,
          7.7535,
          8.0586,
          8.3821,
          8.7255,
          8.9482,
          9.0408,
          9.1348,
          9.2303,
          9.4786,
          9.7309,
          9.836,
          9.9427,
          10.051,
          10.161,
          10.273,
          10.387,
          10.503,
          10.621,
          10.741,
          10.863,
          10.987,
          11.31,
          11.851,
          12.204,
          12.351,
          12.502,
          12.655,
          12.811,
          12.97,
          13.131,
          13.296,
          13.464,
          13.635,
          13.81,
          13.988,
          14.169,
          14.354,
          14.542,
          14.734,
          14.93,
          15.13,
          15.334,
          15.542,
          15.755,
          15.972,
          16.193,
          16.419,
          16.65,
          16.885,
          17.126,
          17.372,
          17.623,
          17.879,
          18.142,
          18.41,
          18.684,
          18.964,
          19.251,
          19.544,
          19.844,
          20.151
        ],
        [
          1779.2,
          1856.0,
          1797.0,
          1927.3,
          1991.5,
          1872.0,
          1806.9,
          1824.4,
          1604.5,
          1745.8,
          1788.6,
          1800.3,
          1816.8,
          1742.2,
          1768.5,
          1649.1,
          1715.6,
          1661.8,
          1798.9,
          1670.1,
          1722.0,
          1658.0,
          1549.4,
          1385.8,
          1833.6,
          1792.8,
          1441.6,
          1642.0,
          1680.6,
          1564.7,
          1551.2,
          1590.4,
          1668.2,
          1499.4,
          1523.6,
          1497.2,
          1459.6,
          1508.9,
          1456.9,
          1438.7,
          1418.0,
          1384.1,
          1506.7,
          1470.2,
          1412.6,
          1379.5,
          1219.9,
          1590.0,
          1432.9,
          1364.0,
          1406.2,
          1457.8,
          1334.3,
          1457.8,
          1246.9,
          1356.9,
          1336.4,
          1352.6,
          1279.1,
          1331.5,
          1274.7,
          1271.6,
          1338.0,
          1239.5,
          1234.3,
          1225.1,
          1235.6,
          1220.3,
          1249.3,
          1226.9,
          1221.5,
          1227.6,
          1234.0,
          1175.0,
          1192.6,
          1192.0,
          1132.8,
          1093.4,
          1153.1,
          1219.6,
          1149.2,
          1155.7,
          1110.7,
          1139.0,
          1098.7,
          1144.4,
          1102.7,
          1039.0,
          1088.7,
          1058.8,
          1059.0,
          1048.6,
          1004.7,
          1024.1,
          1032.2,
          1002.0,
          976.19,
          1027.3,
          1020.4,
          1007.0,
          989.48,
          998.37,
          991.63,
          974.54,
          945.01,
          946.34,
          948.35,
          927.42,
          938.83,
          947.87,
          939.02,
          932.85,
          945.66,
          927.73,
          889.79,
          895.49,
          865.94,
          915.79,
          899.72,
          892.16,
          864.92,
          831.58,
          845.78,
          822.72,
          841.07,
          807.85,
          843.54,
          844.98,
          817.35,
          815.94,
          811.71,
          830.64,
          782.08,
          784.29,
          794.25,
          798.42,
          776.95,
          811.37,
          768.01,
          746.04,
          754.34,
          744.62,
          750.45,
          730.99,
          739.09,
          738.47,
          723.16,
          750.93,
          710.22,
          700.38,
          696.55,
          673.35,
          691.48,
          680.56,
          678.03,
          675.78,
          669.16,
          659.23,
          644.13,
          652.27,
          652.33,
          629.17,
          633.5,
          604.49,
          613.7,
          603.17,
          589.97,
          573.81,
          561.59,
          548.72,
          540.75,
          530.55,
          535.98,
          518.03,
          494.03,
          520.34,
          512.58,
          496.22,
          524.72,
          504.95,
          500.93,
          491.38,
          495.12,
          483.56,
          475.59,
          470.07,
          468.82,
          463.2,
          456.08,
          464.78,
          446.72,
          451.95,
          431.97,
          442.28,
          431.04,
          423.23,
          428.34,
          422.99,
          425.23,
          413.08,
          402.54,
          412.06,
          388.79,
          403.59,
          392.65,
          383.53,
          382.73,
          377.8,
          383.76,
          379.41,
          392.87,
          355.0,
          366.62,
          358.71,
          385.13,
          365.95,
          345.15,
          355.09,
          341.02,
          342.56,
          329.51,
          345.19,
          335.06,
          328.08,
          340.12,
          331.68,
          332.77,
          319.77,
          316.15,
          328.31,
          308.15,
          309.79,
          304.15,
          286.12,
          276.81,
          286.7,
          291.66,
          283.87,
          268.03,
          257.56,
          261.39,
          254.56,
          247.13,
          234.91,
          230.28,
          227.36,
          227.91,
          218.94,
          223.34,
          229.31,
          215.95,
          218.24,
          211.27,
          224.1,
          219.41,
          211.58,
          217.31,
          196.72,
          208.92,
          207.01,
          209.43,
          197.04,
          206.75,
          196.25,
          202.46,
          200.4,
          201.12,
          199.91,
          201.4,
          203.58,
          188.02,
          193.18,
          187.14,
          194.25,
          183.86,
          177.99,
          172.32,
          181.52,
          181.78,
          170.51,
          187.92,
          169.75,
          167.5,
          171.05,
          166.79,
          157.05,
          172.92,
          154.82,
          151.6,
          149.64,
          153.1,
          151.13,
          147.57,
          154.53,
          147.14,
          143.5,
          148.13,
          134.82,
          142.6,
          136.04,
          137.5,
          129.91,
          128.24,
          132.14,
          131.26,
          126.31,
          122.43,
          120.27,
          135.05,
          105.9,
          121.72,
          132.02,
          116.02,
          121.9,
          122.0,
          124.27,
          137.94,
          147.51,
          152.8,
          170.92,
          178.84,
          190.63,
          216.31,
          207.15,
          208.55,
          221.07,
          212.48,
          233.38,
          229.55,
          253.0,
          262.33,
          247.09,
          298.7,
          263.55,
          299.88,
          318.5,
          323.61,
          326.57,
          326.84,
          368.15,
          370.75,
          362.14,
          398.22,
          415.45,
          435.45,
          498.87,
          529.16,
          602.65,
          647.04,
          665.46,
          755.09,
          843.82,
          887.83,
          792.12,
          719.07,
          608.95,
          566.68,
          511.3,
          463.69,
          383.92,
          325.94,
          288.56,
          277.59,
          279.26,
          324.67,
          421.67,
          477.16,
          520.43,
          607.04,
          555.31,
          571.61,
          638.54,
          525.36,
          460.47,
          366.92,
          304.67,
          255.55,
          187.17,
          134.26,
          85.841,
          69.405,
          52.847,
          48.8,
          52.834,
          47.243,
          48.979,
          52.283,
          49.629,
          42.777,
          53.688,
          62.87,
          65.486,
          71.431,
          83.843,
          99.766,
          126.91,
          135.59,
          138.04,
          138.44,
          178.65,
          190.93,
          167.91,
          134.42,
          128.09,
          112.05,
          76.65,
          61.51,
          52.632,
          57.125,
          66.32,
          84.253,
          94.768,
          89.823,
          79.533,
          109.1,
          111.56,
          105.85,
          96.343,
          82.823,
          65.531,
          60.505,
          65.179,
          96.994,
          113.99,
          115.26,
          108.62,
          118.21,
          121.66,
          126.22,
          158.27,
          200.3,
          264.98,
          359.9,
          524.98,
          594.75,
          566.04,
          364.39,
          212.69,
          123.27,
          80.544,
          56.115,
          44.996,
          48.394,
          35.721,
          27.152,
          29.571,
          39.646,
          31.66,
          38.91,
          49.071,
          65.992,
          66.709,
          71.691,
          66.513,
          86.14,
          127.74,
          185.46,
          306.38,
          460.01,
          431.29,
          311.81,
          181.16,
          112.62,
          93.601,
          82.939,
          58.32,
          70.273,
          84.153,
          127.12,
          204.41,
          304.76,
          267.34,
          152.26,
          79.025,
          65.132,
          80.48,
          83.927,
          72.02,
          34.662,
          20.472,
          16.972,
          14.653,
          20.808,
          52.01,
          128.03,
          171.61,
          110.43,
          101.03,
          134.59,
          162.82,
          164.04,
          89.021,
          32.14,
          24.214,
          24.517,
          52.704,
          72.376,
          78.613,
          123.0,
          194.34,
          177.24,
          79.578,
          47.09,
          58.9
        ],
        [
          92.715,
          92.675,
          88.727,
          91.091,
          90.784,
          125.19,
          118.48,
          83.136,
          76.778,
          79.242,
          77.312,
          77.443,
          76.48,
          72.363,
          72.168,
          68.188,
          98.105,
          93.808,
          69.722,
          66.643,
          67.347,
          66.321,
          62.628,
          118.07,
          136.19,
          132.05,
          118.55,
          62.62,
          61.676,
          58.894,
          57.73,
          57.579,
          57.98,
          53.111,
          52.983,
          51.872,
          49.435,
          49.382,
          47.476,
          45.877,
          44.803,
          43.67,
          45.458,
          44.659,
          86.98,
          85.04,
          80.314,
          92.086,
          42.706,
          40.333,
          40.06,
          40.111,
          37.612,
          55.81,
          51.002,
          36.638,
          35.379,
          34.427,
          32.611,
          32.552,
          44.655,
          43.821,
          44.593,
          41.882,
          29.328,
          28.503,
          27.966,
          38.895,
          38.757,
          26.837,
          26.278,
          26.065,
          25.902,
          25.062,
          24.96,
          24.45,
          23.333,
          45.248,
          45.977,
          47.659,
          45.12,
          22.43,
          21.323,
          21.147,
          28.933,
          29.036,
          28.144,
          26.874,
          19.262,
          18.495,
          18.301,
          17.983,
          17.356,
          17.376,
          34.734,
          33.496,
          32.835,
          33.844,
          23.494,
          22.852,
          22.393,
          22.196,
          21.71,
          21.214,
          20.598,
          20.298,
          20.15,
          19.531,
          19.519,
          19.233,
          19.081,
          18.682,
          18.599,
          18.121,
          17.365,
          17.168,
          16.675,
          16.929,
          11.612,
          11.54,
          15.921,
          15.322,
          15.254,
          14.831,
          14.956,
          14.403,
          14.572,
          14.353,
          13.86,
          13.633,
          13.375,
          13.39,
          12.798,
          12.631,
          12.508,
          12.369,
          17.069,
          17.417,
          16.886,
          16.383,
          8.168,
          7.9869,
          11.301,
          11.031,
          15.568,
          15.343,
          15.094,
          15.379,
          7.3089,
          10.063,
          9.8945,
          9.586,
          9.5627,
          9.3859,
          9.2631,
          9.1951,
          9.0536,
          8.8945,
          8.693,
          6.1307,
          6.1065,
          5.9484,
          8.3179,
          8.0301,
          5.6557,
          5.5071,
          5.3498,
          5.1687,
          5.0524,
          4.924,
          4.8494,
          4.7718,
          9.5616,
          14.751,
          14.354,
          14.827,
          7.245,
          7.1271,
          7.339,
          7.171,
          7.1392,
          7.0902,
          7.1846,
          7.1288,
          7.1027,
          7.1022,
          7.0933,
          9.9734,
          9.9634,
          7.0968,
          6.9558,
          7.0154,
          6.8537,
          6.9611,
          6.887,
          6.8663,
          6.9642,
          6.9962,
          7.0278,
          6.9631,
          6.9458,
          7.1275,
          9.7808,
          10.065,
          7.0607,
          7.0415,
          9.9949,
          10.06,
          7.1939,
          10.16,
          10.443,
          7.0361,
          7.2599,
          7.2485,
          15.15,
          15.007,
          14.371,
          14.81,
          7.2642,
          7.3401,
          10.174,
          10.585,
          7.376,
          10.382,
          10.727,
          7.5156,
          10.584,
          10.5,
          7.3689,
          7.5759,
          7.3075,
          7.3047,
          7.2167,
          6.9761,
          6.8383,
          6.947,
          6.9843,
          6.7903,
          6.5513,
          6.3687,
          6.3306,
          6.1604,
          6.0035,
          5.7592,
          5.6044,
          5.4484,
          5.4198,
          5.2314,
          5.1469,
          10.307,
          14.285,
          13.988,
          13.998,
          7.1415,
          6.9338,
          6.7545,
          9.6831,
          8.9881,
          6.643,
          6.5209,
          6.4935,
          6.1876,
          6.3724,
          6.1237,
          6.1615,
          6.0495,
          6.0026,
          5.9429,
          5.9492,
          5.9107,
          5.5876,
          5.6371,
          5.5493,
          5.5475,
          5.3657,
          5.2164,
          5.1224,
          5.2729,
          5.2097,
          4.942,
          5.2068,
          4.8991,
          4.7859,
          4.8328,
          4.7144,
          4.5249,
          4.7424,
          4.3889,
          4.2937,
          4.2262,
          4.2252,
          4.1363,
          4.0868,
          5.8023,
          5.7442,
          3.9582,
          3.999,
          3.7823,
          3.8829,
          3.7691,
          3.7319,
          3.5887,
          3.5222,
          3.5495,
          3.4714,
          3.3615,
          3.2724,
          3.2144,
          6.675,
          5.9467,
          6.4125,
          6.6139,
          3.0862,
          3.0931,
          3.0724,
          3.0595,
          3.1933,
          3.2777,
          3.2855,
          3.4474,
          4.9364,
          5.047,
          7.6284,
          14.661,
          15.443,
          15.405,
          7.5388,
          7.9629,
          7.7555,
          8.2035,
          8.5337,
          11.445,
          12.924,
          8.2926,
          8.9664,
          9.2711,
          9.3904,
          9.2551,
          13.305,
          14.196,
          9.9784,
          14.083,
          14.619,
          10.635,
          10.888,
          12.095,
          17.544,
          19.413,
          20.334,
          20.03,
          15.75,
          16.924,
          17.613,
          16.155,
          21.658,
          18.635,
          17.959,
          16.743,
          11.154,
          9.7128,
          8.7786,
          8.0922,
          7.8191,
          7.8644,
          8.5489,
          14.476,
          15.649,
          23.129,
          25.667,
          23.711,
          24.356,
          27.188,
          23.29,
          21.092,
          18.055,
          16.085,
          14.612,
          12.049,
          9.6458,
          3.76,
          3.4198,
          2.9389,
          2.7448,
          2.8548,
          2.7018,
          2.7343,
          2.7974,
          3.9113,
          3.4498,
          2.8399,
          3.0429,
          3.0781,
          3.2098,
          3.4566,
          3.8219,
          4.3818,
          9.0126,
          8.9465,
          9.0088,
          10.469,
          5.4105,
          10.103,
          8.682,
          8.4368,
          8.1199,
          3.1914,
          2.8103,
          2.5443,
          2.6648,
          2.8763,
          3.234,
          6.8021,
          6.6855,
          6.1847,
          7.3611,
          3.7566,
          3.5943,
          3.3903,
          3.0818,
          2.7074,
          2.5474,
          2.6453,
          4.6299,
          5.0334,
          3.5766,
          3.4528,
          7.2503,
          7.2872,
          7.3587,
          8.3748,
          9.7854,
          12.103,
          14.631,
          19.432,
          20.767,
          20.415,
          14.494,
          9.9662,
          7.244,
          5.6693,
          4.4926,
          3.9622,
          2.0635,
          1.7181,
          1.5161,
          1.5412,
          1.7926,
          3.1066,
          3.5167,
          3.8769,
          4.59,
          2.2814,
          4.8277,
          4.5279,
          5.2901,
          6.7554,
          8.3263,
          11.819,
          16.07,
          15.083,
          11.988,
          8.0401,
          6.056,
          5.5039,
          2.5005,
          2.0102,
          4.397,
          4.8487,
          6.2474,
          8.5858,
          11.472,
          10.261,
          7.1169,
          4.6141,
          4.1676,
          4.6298,
          4.7432,
          4.4098,
          2.8685,
          2.2275,
          1.9891,
          1.8237,
          2.1627,
          3.5617,
          5.9716,
          7.305,
          5.4823,
          5.1755,
          6.2381,
          6.9362,
          6.9477,
          4.8491,
          2.5541,
          2.2814,
          2.2399,
          3.4758,
          4.0956,
          4.3088,
          5.8212,
          7.8552,
          7.3695,
          4.3023,
          3.1442,
          3.5819
        ]
      ]
    }
  },
  "22080-003": {
    "reaction": {
      "0": {
        "x4_code": "(92-U-235(N,F),,SIG)",
        "0": {
          "code": [
            "92-U-235",
            [
              "N,F"
            ],
            ",,SIG"
          ],
          "type": null,
          "target": "92-U-235",
          "process": "N,F",
          "sf49": ",,SIG",
          "sf4": null,
          "sf5": null,
          "sf6": "SIG",
          "sf7": null,
          "sf8": null,
          "sf9": null
        },
        "type": null,
        "free_text": ""
      }
    },
    "extra_information": {
      "correction": {
        "0": [
          {
            "x4_code": null,
            "free_txt": [
              " A normalization was done in the thermal region",
              " relative to the zero fission cross-sections values",
              " proposed for the ENDF-B6 file for U235."
            ]
          }
        ]
      },
      "monit-ref": {
        "0": [
          {
            "x4_code": "(,,3,ENDF/B-VII.0,,1990)",
            "free_txt": []
          }
        ]
      },
      "monitor": {
        "0": [
          {
            "x4_code": "(92-U-235(N,F),,SIG)",
            "free_txt": []
          }
        ]
      },
      "sample": {
        "0": [
          {
            "x4_code": null,
            "free_txt": [
              ".The fissile layer were mounted back to back with the",
              " layer of 25 micro-g Li6F/cm2,in the center of a vacuum",
              " chamber. The fissile layers were evaporated homoge-",
              " neously with a thickness of 40 micro-g U235/cm2",
              " (235UF4)"
            ]
          }
        ]
      },
      "status": {
        "0": [
          {
            "x4_code": "(TABLE)",
            "free_txt": [
              " Data were taken from private communication"
            ]
          }
        ]
      }
    },
    "common": {
      "heads": [
        "EN-NRM",
        "MONIT",
        "MONIT-ERR"
      ],
      "units": [
        "EV",
        "B",
        "PER-CENT"
      ],
      "data": [
        [
          0.0253
        ],
        [
          584.25
        ],
        [
          0.19
        ]
      ]
    },
    "data": {
      "heads": [
        "EN",
        "DATA",
        "ERR-1"
      ],
      "units": [
        "EV",
        "B",
        "B"
      ],
      "data": [
        [
          0.0020256,
          0.0020502,
          0.0020882,
          0.0021404,
          0.0021945,
          0.0022507,
          0.0023091,
          0.0023698,
          0.002433,
          0.0024986,
          0.0025669,
          0.002638,
          0.0027122,
          0.0027896,
          0.0028703,
          0.0029546,
          0.0030426,
          0.0031347,
          0.0032309,
          0.0033317,
          0.0034099,
          0.003464,
          0.0035192,
          0.0035759,
          0.003664,
          0.0037387,
          0.0037696,
          0.0038009,
          0.0038324,
          0.0038807,
          0.0039464,
          0.0040138,
          0.0040828,
          0.0041537,
          0.0042264,
          0.004301,
          0.0043775,
          0.0044563,
          0.0045371,
          0.0046633,
          0.0048389,
          0.0050247,
          0.00517,
          0.005271,
          0.0053753,
          0.0054825,
          0.0055647,
          0.0056208,
          0.0056778,
          0.0057355,
          0.0058242,
          0.0059452,
          0.0060701,
          0.0061989,
          0.0064016,
          0.0066853,
          0.0068699,
          0.0069469,
          0.0070251,
          0.0071047,
          0.0072273,
          0.0073949,
          0.0075239,
          0.0076121,
          0.0077019,
          0.0077933,
          0.0078863,
          0.007981,
          0.0080775,
          0.0081758,
          0.0082757,
          0.0083775,
          0.0084813,
          0.008587,
          0.00875,
          0.0089737,
          0.0091462,
          0.0092646,
          0.0093853,
          0.0095084,
          0.009634,
          0.0097619,
          0.0098924,
          0.010026,
          0.010162,
          0.0103,
          0.010442,
          0.010586,
          0.010734,
          0.010885,
          0.011039,
          0.011196,
          0.011356,
          0.01152,
          0.011688,
          0.011859,
          0.012311,
          0.012774,
          0.01297,
          0.01317,
          0.013375,
          0.013585,
          0.0138,
          0.01402,
          0.014245,
          0.014476,
          0.014712,
          0.014954,
          0.015202,
          0.015589,
          0.016124,
          0.016992,
          0.017906,
          0.018566,
          0.019642,
          0.020781,
          0.021609,
          0.022966,
          0.024954,
          0.026152,
          0.026352,
          0.02647,
          0.026588,
          0.026708,
          0.026828,
          0.026949,
          0.027071,
          0.027636,
          0.028674,
          0.029485,
          0.030049,
          0.030932,
          0.032163,
          0.033468,
          0.034854,
          0.036329,
          0.037488,
          0.038298,
          0.039134,
          0.039998,
          0.040891,
          0.041815,
          0.04277,
          0.043758,
          0.044781,
          0.04584,
          0.046937,
          0.048074,
          0.049253,
          0.050475,
          0.051744,
          0.053061,
          0.054429,
          0.055851,
          0.057329,
          0.058867,
          0.060467,
          0.062134,
          0.06387,
          0.065681,
          0.067569,
          0.06954,
          0.072698,
          0.077203,
          0.082141,
          0.087568,
          0.093551,
          0.10017,
          0.10752,
          0.1157,
          0.12486,
          0.13515,
          0.14133,
          0.14243,
          0.14317,
          0.14392,
          0.14467,
          0.14543,
          0.14619,
          0.14696,
          0.15055,
          0.15718,
          0.16426,
          0.17182,
          0.17992,
          0.1886,
          0.19793,
          0.20797,
          0.21879,
          0.23048,
          0.24313,
          0.25685,
          0.27177,
          0.28803,
          0.30579,
          0.32525,
          0.34662,
          0.37018,
          0.39622,
          0.4251,
          0.45727,
          0.49324,
          0.53362,
          0.57917,
          0.63082,
          0.68971,
          0.75724,
          0.83521,
          0.92589,
          0.9882,
          1.0157,
          1.0444,
          1.0744,
          1.1056,
          1.1382,
          1.1723,
          1.208,
          1.2356,
          1.2474,
          1.2522,
          1.257,
          1.2619,
          1.2668,
          1.2717,
          1.2766,
          1.2994,
          1.341,
          1.3847,
          1.4306,
          1.4787,
          1.5294,
          1.5826,
          1.6388,
          1.6979,
          1.7603,
          1.8262,
          1.8959,
          1.9697,
          2.0478,
          2.1307,
          2.2188,
          2.3124,
          2.412,
          2.5183,
          2.6317,
          2.7529,
          2.8828,
          2.9853,
          3.0574,
          3.1716,
          3.3326,
          3.4379,
          3.4821,
          3.5271,
          3.573,
          3.6199,
          3.6676,
          3.7163,
          3.7659,
          3.8965,
          4.1167,
          4.356,
          4.6168,
          4.7888,
          4.8616,
          4.936,
          5.0121,
          5.1304,
          5.2937,
          5.557,
          5.8333,
          6.0316,
          6.1595,
          6.2123,
          6.2658,
          6.32,
          6.3748,
          6.4304,
          6.4868,
          6.5438,
          6.6016,
          6.6602,
          6.7196,
          6.7798,
          6.8408,
          6.9026,
          6.9652,
          7.0288,
          7.0931,
          7.1584,
          7.2246,
          7.2917,
          7.3597,
          7.4287,
          7.4987,
          7.5697,
          7.6784,
          7.8265,
          7.979,
          8.136,
          8.2563,
          8.3383,
          8.4216,
          8.5061,
          8.5918,
          8.6789,
          8.7673,
          8.8571,
          8.9482,
          9.0408,
          9.1348,
          9.2303,
          9.3273,
          9.4258,
          9.5259,
          9.6276,
          9.7839,
          9.9973,
          10.218,
          10.446,
          11.066,
          11.639,
          11.777,
          11.916,
          12.059,
          12.204,
          12.351,
          12.502,
          12.655,
          12.811,
          12.97,
          13.131,
          13.296,
          13.464,
          13.635,
          13.81,
          13.988,
          14.169,
          14.354,
          14.542,
          14.734,
          14.93,
          15.13,
          15.334,
          15.542,
          15.755,
          15.972,
          16.193,
          16.419,
          16.65,
          16.885,
          17.126,
          17.372,
          17.623,
          17.879,
          18.142,
          18.41,
          18.684,
          18.964,
          19.251,
          19.544,
          19.844,
          20.151
        ],
        [
          2278.2,
          2023.9,
          2039.0,
          2093.5,
          2069.7,
          2036.3,
          2065.6,
          1959.9,
          2006.8,
          1923.6,
          1951.8,
          1921.9,
          1846.7,
          1833.9,
          1889.3,
          1785.6,
          1746.6,
          1729.2,
          1677.1,
          1673.5,
          1650.3,
          1645.5,
          1650.1,
          1607.0,
          1602.1,
          1552.1,
          1445.6,
          1516.1,
          1581.3,
          1522.8,
          1499.3,
          1532.1,
          1501.3,
          1482.2,
          1466.1,
          1461.8,
          1447.2,
          1417.7,
          1449.6,
          1406.9,
          1383.6,
          1317.7,
          1321.0,
          1311.1,
          1315.1,
          1311.9,
          1302.4,
          1269.1,
          1250.0,
          1257.0,
          1289.7,
          1243.7,
          1216.3,
          1205.3,
          1208.2,
          1167.8,
          1158.8,
          1134.1,
          1117.2,
          1131.2,
          1125.4,
          1116.7,
          1110.1,
          1084.6,
          1110.1,
          1121.3,
          1103.4,
          1097.8,
          1080.0,
          1083.3,
          1058.1,
          1046.2,
          1050.7,
          1031.7,
          1030.4,
          1011.4,
          1014.4,
          977.46,
          1012.2,
          980.8,
          980.26,
          964.18,
          956.06,
          948.29,
          933.91,
          932.12,
          939.66,
          928.78,
          930.58,
          905.3,
          907.46,
          906.24,
          884.61,
          881.75,
          891.52,
          878.64,
          868.13,
          862.71,
          837.9,
          832.78,
          826.21,
          816.13,
          811.24,
          794.53,
          799.16,
          792.44,
          768.4,
          772.23,
          754.99,
          752.71,
          738.1,
          720.28,
          700.55,
          693.48,
          674.89,
          649.86,
          636.91,
          618.02,
          591.75,
          580.64,
          576.41,
          566.75,
          562.29,
          576.58,
          565.63,
          566.5,
          562.02,
          554.1,
          546.56,
          530.48,
          525.15,
          523.48,
          507.46,
          492.17,
          484.03,
          481.13,
          461.15,
          461.26,
          453.49,
          443.0,
          438.53,
          434.04,
          427.71,
          432.38,
          426.43,
          414.6,
          417.86,
          406.63,
          401.08,
          392.88,
          384.75,
          383.14,
          378.59,
          357.77,
          361.81,
          355.76,
          353.4,
          347.68,
          342.09,
          336.06,
          328.32,
          316.1,
          309.77,
          302.5,
          288.6,
          272.65,
          264.17,
          251.62,
          243.01,
          230.94,
          223.34,
          209.35,
          197.05,
          210.36,
          211.86,
          209.27,
          201.76,
          197.72,
          192.21,
          194.7,
          195.28,
          195.82,
          186.17,
          185.05,
          182.06,
          175.58,
          175.16,
          174.78,
          174.11,
          176.89,
          184.43,
          189.44,
          190.16,
          193.81,
          187.18,
          171.43,
          153.43,
          131.33,
          119.73,
          103.25,
          94.429,
          84.436,
          76.657,
          69.838,
          63.157,
          58.939,
          56.857,
          53.236,
          57.723,
          60.9,
          70.362,
          80.908,
          89.193,
          97.401,
          108.43,
          90.35,
          60.758,
          41.444,
          42.077,
          35.203,
          27.712,
          23.871,
          35.156,
          34.361,
          21.886,
          23.761,
          23.43,
          19.309,
          17.048,
          16.098,
          15.176,
          15.714,
          14.921,
          14.654,
          13.314,
          14.878,
          13.299,
          16.193,
          24.852,
          13.998,
          10.317,
          11.757,
          9.6582,
          10.163,
          8.3696,
          8.5944,
          18.087,
          20.843,
          27.912,
          45.109,
          21.845,
          18.434,
          24.876,
          36.43,
          55.468,
          81.623,
          75.59,
          36.181,
          14.582,
          2.9937,
          2.6256,
          2.5842,
          2.7001,
          8.2266,
          17.232,
          16.929,
          7.644,
          4.5369,
          8.736,
          15.382,
          15.798,
          22.628,
          37.334,
          42.619,
          52.605,
          64.011,
          88.169,
          108.24,
          95.435,
          48.399,
          19.382,
          9.0814,
          5.8575,
          5.0334,
          6.7276,
          9.141,
          17.41,
          26.024,
          54.568,
          66.197,
          46.98,
          20.95,
          5.9083,
          5.2283,
          5.5826,
          1.8798,
          3.3952,
          2.987,
          2.7499,
          6.731,
          9.4126,
          13.756,
          20.143,
          36.893,
          76.85,
          165.52,
          365.93,
          514.63,
          425.37,
          219.66,
          115.01,
          80.486,
          88.268,
          83.434,
          60.423,
          39.368,
          32.686,
          22.146,
          27.024,
          20.95,
          13.783,
          37.607,
          45.944,
          32.73,
          22.306,
          44.105,
          123.63,
          218.53,
          160.68,
          40.536,
          24.217,
          24.093,
          20.247,
          28.743,
          29.709,
          51.005,
          68.827,
          78.485,
          64.596,
          42.257,
          28.944,
          13.334,
          13.002,
          23.306,
          40.693,
          28.124,
          16.886,
          34.842,
          33.511,
          29.218,
          44.049,
          26.825,
          9.831,
          8.2608,
          18.938,
          45.993,
          47.26,
          27.672,
          52.558,
          189.58,
          303.16,
          159.36,
          26.915
        ],
        [
          62.52,
          56.59,
          39.31,
          38.436,
          36.927,
          35.274,
          34.278,
          31.828,
          31.255,
          30.253,
          30.454,
          29.211,
          27.401,
          26.502,
          25.976,
          24.251,
          23.0,
          21.869,
          20.679,
          20.344,
          28.335,
          27.608,
          27.029,
          26.048,
          18.003,
          35.549,
          33.521,
          33.803,
          33.716,
          23.094,
          22.076,
          21.831,
          21.083,
          20.411,
          19.788,
          19.438,
          18.924,
          18.227,
          18.042,
          12.202,
          11.87,
          11.348,
          15.567,
          15.159,
          14.831,
          14.47,
          20.019,
          19.414,
          19.114,
          18.825,
          13.308,
          12.75,
          12.282,
          12.013,
          8.35,
          7.9758,
          15.527,
          15.166,
          14.847,
          14.719,
          10.118,
          9.8394,
          13.602,
          13.219,
          13.206,
          13.106,
          12.841,
          12.627,
          12.359,
          12.208,
          11.862,
          11.576,
          11.476,
          11.189,
          7.7591,
          7.5103,
          10.547,
          10.345,
          10.509,
          10.121,
          10.036,
          9.8398,
          9.6863,
          9.4778,
          9.272,
          9.1197,
          9.0127,
          8.8594,
          8.7367,
          8.4959,
          8.3621,
          8.255,
          8.0049,
          7.8921,
          7.858,
          7.7068,
          3.7405,
          7.4076,
          7.1999,
          7.0687,
          6.9519,
          6.8083,
          6.7044,
          6.5123,
          6.4554,
          6.3264,
          6.1477,
          6.1022,
          5.9585,
          4.1411,
          4.0327,
          2.7703,
          3.8255,
          3.7254,
          2.5273,
          3.4146,
          3.3183,
          2.2691,
          2.1753,
          6.0361,
          9.4274,
          9.3142,
          9.2449,
          9.4235,
          9.2868,
          9.2381,
          9.2749,
          3.2445,
          3.2177,
          4.4996,
          4.5022,
          3.2126,
          3.1788,
          3.1425,
          3.1272,
          3.1355,
          4.3606,
          4.3937,
          4.379,
          4.3537,
          4.3542,
          4.364,
          4.3784,
          4.4515,
          4.4701,
          4.4345,
          4.5086,
          4.486,
          4.4956,
          4.4934,
          4.4798,
          4.5372,
          4.561,
          4.46,
          4.5572,
          4.5487,
          4.5915,
          4.5882,
          4.5635,
          4.575,
          4.5179,
          4.4662,
          3.1274,
          3.0849,
          2.9896,
          2.8838,
          2.8059,
          2.6738,
          2.5652,
          2.4177,
          2.3073,
          2.1533,
          5.8089,
          8.4276,
          8.5607,
          8.384,
          8.1922,
          8.1206,
          7.9229,
          7.9563,
          2.7924,
          2.7421,
          2.6144,
          2.5573,
          2.4901,
          2.4015,
          2.3601,
          2.311,
          2.2811,
          2.2653,
          2.2873,
          2.2862,
          2.253,
          2.2437,
          2.1621,
          2.0116,
          1.8573,
          1.6719,
          1.5622,
          1.4197,
          1.3389,
          1.2433,
          1.161,
          1.0813,
          1.0015,
          0.93701,
          0.90204,
          0.84763,
          0.85748,
          1.7328,
          1.8519,
          2.0046,
          2.0846,
          2.1615,
          2.3054,
          2.0573,
          1.6526,
          1.8836,
          3.8649,
          3.4313,
          3.0214,
          2.7954,
          3.4427,
          3.4596,
          2.6879,
          0.99147,
          0.97861,
          0.87361,
          0.81096,
          0.77945,
          0.74755,
          0.75604,
          0.7285,
          0.71729,
          0.67128,
          0.70545,
          0.6597,
          0.71832,
          0.89026,
          0.65804,
          0.55388,
          0.58537,
          0.52177,
          0.53455,
          0.47677,
          0.47583,
          0.6863,
          1.0215,
          1.1833,
          1.0771,
          0.72953,
          1.3173,
          1.531,
          1.8661,
          2.3546,
          2.91,
          2.7882,
          1.8351,
          1.1485,
          0.25416,
          0.23734,
          0.23052,
          0.23255,
          0.79648,
          1.1548,
          1.157,
          0.75782,
          0.41064,
          0.56452,
          0.52689,
          0.74107,
          0.88419,
          2.3068,
          2.4767,
          2.7872,
          3.1616,
          3.7982,
          4.2742,
          3.9234,
          2.666,
          1.5665,
          1.0753,
          0.86837,
          0.79894,
          0.91435,
          1.0761,
          1.4948,
          1.8177,
          2.7512,
          3.0495,
          2.5075,
          1.6006,
          0.85121,
          0.78527,
          0.82121,
          0.48503,
          0.44813,
          0.41644,
          0.4035,
          0.61725,
          1.0388,
          1.2317,
          1.5056,
          2.1044,
          3.2375,
          5.1682,
          9.3967,
          12.209,
          10.499,
          6.3145,
          4.0675,
          3.1661,
          3.4092,
          3.2808,
          2.6992,
          2.0911,
          1.3357,
          1.0741,
          1.1857,
          1.0298,
          0.40789,
          1.9629,
          2.1826,
          1.7947,
          1.446,
          2.1137,
          3.9817,
          5.9224,
          4.8404,
          1.9686,
          1.4878,
          1.4804,
          1.3369,
          1.5876,
          1.645,
          2.1906,
          2.6507,
          2.8825,
          2.5614,
          1.9886,
          1.5569,
          1.0407,
          1.0233,
          1.3707,
          1.9132,
          1.5317,
          1.1385,
          1.7142,
          1.6765,
          1.5393,
          1.937,
          1.4519,
          0.85256,
          0.7714,
          1.1935,
          1.9579,
          1.9745,
          1.4738,
          2.1576,
          5.1796,
          7.218,
          4.4239,
          1.3913
        ]
      ]
    }
  },
  "22080-004": {
    "reaction": {
      "0": {
        "x4_code": "(94-PU-239(N,F),,SIG)",
        "0": {
          "code": [
            "94-PU-239",
            [
              "N,F"
            ],
            ",,SIG"
          ],
          "type": null,
          "target": "94-PU-239",
          "process": "N,F",
          "sf49": ",,SIG",
          "sf4": null,
          "sf5": null,
          "sf6": "SIG",
          "sf7": null,
          "sf8": null,
          "sf9": null
        },
        "type": null,
        "free_text": ""
      }
    },
    "extra_information": {
      "monit-ref": {
        "0": [
          {
            "x4_code": "(,,3,ENDF/B-VII.0,,1990)",
            "free_txt": [
              " A normalization was done in the thermal region",
              " relative to the zero fission cross-sections values",
              " proposed for the ENDFB6 file for Pu-239."
            ]
          }
        ]
      },
      "monitor": {
        "0": [
          {
            "x4_code": "(94-PU-239(N,F),,SIG)",
            "free_txt": []
          }
        ]
      },
      "sample": {
        "0": [
          {
            "x4_code": null,
            "free_txt": [
              ".The fissile layer were mounted back to back with the",
              " layer of 25 micro-g Li6F/cm2,in the center of a vacuum",
              " chamber.The fissile layers were evaporated homoge-",
              " neously with a thickness of 40 micro-g Pu-239/cm2",
              " (239PuF4)"
            ]
          }
        ]
      },
      "status": {
        "0": [
          {
            "x4_code": "(TABLE)",
            "free_txt": [
              " Data were taken from private communication"
            ]
          }
        ]
      }
    },
    "common": {
      "heads": [
        "EN-NRM",
        "MONIT",
        "MONIT-ERR"
      ],
      "units": [
        "EV",
        "B",
        "PER-CENT"
      ],
      "data": [
        [
          0.0253
        ],
        [
          748.0
        ],
        [
          0.25
        ]
      ]
    },
    "data": {
      "heads": [
        "EN",
        "DATA",
        "ERR-1"
      ],
      "units": [
        "EV",
        "B",
        "B"
      ],
      "data": [
        [
          0.0020014,
          0.0020256,
          0.0020502,
          0.0020659,
          0.0020722,
          0.0020785,
          0.0020849,
          0.0020913,
          0.0020977,
          0.0021041,
          0.0021105,
          0.0021269,
          0.0021535,
          0.0021806,
          0.0022082,
          0.0022362,
          0.0022649,
          0.0022941,
          0.0023238,
          0.0023542,
          0.0023852,
          0.0024167,
          0.0024488,
          0.0024817,
          0.0025151,
          0.0025493,
          0.0025841,
          0.0026197,
          0.002656,
          0.0026931,
          0.002731,
          0.0027696,
          0.0028091,
          0.0028495,
          0.0028907,
          0.0029328,
          0.0029759,
          0.0030199,
          0.0030649,
          0.0031109,
          0.0031579,
          0.003206,
          0.0032552,
          0.0033056,
          0.0033571,
          0.0034099,
          0.003464,
          0.0035052,
          0.0035331,
          0.0035759,
          0.0036192,
          0.0036486,
          0.0036934,
          0.0037544,
          0.0038009,
          0.0038324,
          0.0038807,
          0.0039296,
          0.0039629,
          0.0039966,
          0.0040307,
          0.0040566,
          0.0040739,
          0.0040913,
          0.0041089,
          0.0041355,
          0.0041714,
          0.0041986,
          0.0042169,
          0.0042353,
          0.0042539,
          0.004282,
          0.0043197,
          0.0043775,
          0.0044563,
          0.0045371,
          0.0046201,
          0.0047055,
          0.0047932,
          0.0048834,
          0.0049762,
          0.0050717,
          0.0051449,
          0.0051947,
          0.005271,
          0.0053753,
          0.0054825,
          0.0055929,
          0.0057069,
          0.0057942,
          0.0058537,
          0.0059452,
          0.0060701,
          0.0061989,
          0.0063318,
          0.0064691,
          0.0066108,
          0.0067573,
          0.0068699,
          0.0069469,
          0.0070251,
          0.0071047,
          0.0072273,
          0.0073949,
          0.0075684,
          0.0077019,
          0.0077933,
          0.0078863,
          0.007981,
          0.0080775,
          0.0081758,
          0.0082504,
          0.0083008,
          0.0083518,
          0.0084032,
          0.0085346,
          0.0086946,
          0.0088044,
          0.0089737,
          0.009206,
          0.0093853,
          0.0095084,
          0.0096985,
          0.0098924,
          0.010026,
          0.010162,
          0.0103,
          0.010442,
          0.010586,
          0.010734,
          0.010885,
          0.011039,
          0.011196,
          0.011356,
          0.01152,
          0.011688,
          0.011859,
          0.011989,
          0.012078,
          0.012167,
          0.012258,
          0.01249,
          0.012873,
          0.013119,
          0.013221,
          0.013323,
          0.013427,
          0.013585,
          0.0138,
          0.01402,
          0.014245,
          0.014476,
          0.014712,
          0.014954,
          0.015202,
          0.015456,
          0.015717,
          0.016124,
          0.016687,
          0.01728,
          0.017743,
          0.018064,
          0.018394,
          0.018733,
          0.019264,
          0.020001,
          0.020781,
          0.021609,
          0.022486,
          0.023418,
          0.02441,
          0.025465,
          0.026152,
          0.026352,
          0.02647,
          0.026588,
          0.02689,
          0.027381,
          0.027885,
          0.028404,
          0.028937,
          0.029485,
          0.029905,
          0.030191,
          0.030629,
          0.031226,
          0.031841,
          0.032313,
          0.032634,
          0.033127,
          0.033799,
          0.034492,
          0.035206,
          0.035943,
          0.036703,
          0.037287,
          0.037685,
          0.037988,
          0.038192,
          0.038398,
          0.038605,
          0.03892,
          0.039345,
          0.039667,
          0.039885,
          0.040105,
          0.040326,
          0.040891,
          0.041578,
          0.042048,
          0.04277,
          0.043758,
          0.044781,
          0.04584,
          0.046937,
          0.047638,
          0.047925,
          0.048214,
          0.048506,
          0.04895,
          0.04955,
          0.050161,
          0.050784,
          0.051744,
          0.053061,
          0.054429,
          0.055851,
          0.057329,
          0.058471,
          0.059255,
          0.060467,
          0.062134,
          0.063423,
          0.064309,
          0.065681,
          0.067082,
          0.068046,
          0.06954,
          0.071598,
          0.073749,
          0.075999,
          0.078353,
          0.080818,
          0.082733,
          0.084055,
          0.086111,
          0.088955,
          0.091942,
          0.095082,
          0.098385,
          0.10186,
          0.10553,
          0.1094,
          0.11348,
          0.1178,
          0.12237,
          0.12721,
          0.13234,
          0.13567,
          0.13705,
          0.13846,
          0.13988,
          0.14133,
          0.14243,
          0.14317,
          0.14392,
          0.14582,
          0.14893,
          0.15213,
          0.15544,
          0.15799,
          0.15973,
          0.1624,
          0.16605,
          0.16983,
          0.17374,
          0.17779,
          0.18197,
          0.18631,
          0.18965,
          0.19194,
          0.19547,
          0.2003,
          0.20532,
          0.21052,
          0.21593,
          0.22154,
          0.22588,
          0.22885,
          0.23112,
          0.23265,
          0.2342,
          0.23576,
          0.23977,
          0.24466,
          0.24801,
          0.25144,
          0.25494,
          0.25851,
          0.26215,
          0.26588,
          0.26968,
          0.27258,
          0.27454,
          0.27653,
          0.27854,
          0.28369,
          0.29218,
          0.30104,
          0.31032,
          0.31752,
          0.32249,
          0.32758,
          0.33279,
          0.33812,
          0.34359,
          0.34918,
          0.35492,
          0.36079,
          0.36682,
          0.37299,
          0.37933,
          0.38417,
          0.38746,
          0.39079,
          0.39416,
          0.39932,
          0.40634,
          0.4173,
          0.42855,
          0.43635,
          0.44855,
          0.46552,
          0.47878,
          0.48801,
          0.50246,
          0.52261,
          0.54399,
          0.56076,
          0.57247,
          0.59088,
          0.61664,
          0.64411,
          0.67347,
          0.70487,
          0.73853,
          0.77466,
          0.81351,
          0.85535,
          0.90051,
          0.94934,
          1.0023,
          1.0597,
          1.1223,
          1.1905,
          1.2356,
          1.2474,
          1.2522,
          1.257,
          1.2693,
          1.2891,
          1.3094,
          1.3303,
          1.3516,
          1.3734,
          1.3958,
          1.4187,
          1.4422,
          1.4662,
          1.4909,
          1.5162,
          1.5422,
          1.5688,
          1.5961,
          1.6242,
          1.653,
          1.6825,
          1.7129,
          1.7441,
          1.7761,
          1.8091,
          1.8429,
          1.8778,
          1.9136,
          1.9504,
          1.9884,
          2.0274,
          2.0676,
          2.1091,
          2.1518,
          2.1957,
          2.2238,
          2.2352,
          2.2467,
          2.2583,
          2.2879,
          2.3361,
          2.3859,
          2.4373,
          2.4904,
          2.5452,
          2.6019,
          2.6381,
          2.6528,
          2.6677,
          2.6827,
          2.7211,
          2.7838,
          2.8486,
          2.89,
          2.907,
          2.9241,
          2.9413,
          2.9853,
          3.0574,
          3.1322,
          3.2097,
          3.2901,
          3.3735,
          3.4602,
          3.5503,
          3.644,
          3.7413,
          3.8427,
          3.9482,
          4.0582,
          4.1728,
          4.2923,
          4.417,
          4.5472,
          4.6833,
          4.7888,
          4.8616,
          4.9745,
          5.1304,
          5.2937,
          5.4649,
          5.5752,
          5.6206,
          5.6666,
          5.7132,
          5.8333,
          6.0316,
          6.2403,
          6.4599,
          6.6913,
          6.9354,
          7.1931,
          7.3597,
          7.4287,
          7.4987,
          7.5697,
          7.6416,
          7.7146,
          7.7887,
          7.8638,
          7.9401,
          8.0174,
          8.0959,
          8.1755,
          8.2976,
          8.4641,
          8.7255,
          9.0904,
          9.4786,
          9.8923,
          10.161,
          10.273,
          10.387,
          10.503,
          10.621,
          10.741,
          10.863,
          10.987,
          11.113,
          11.241,
          11.371,
          11.504,
          11.639,
          11.777,
          11.916,
          12.059,
          12.204,
          12.351,
          12.502,
          12.655,
          13.056,
          13.464,
          13.635,
          13.81,
          13.988,
          14.169,
          14.354,
          14.542,
          14.734,
          14.93,
          15.13,
          15.334,
          15.542,
          15.755,
          15.972,
          16.193,
          16.419,
          16.65,
          16.885,
          17.126,
          17.372,
          17.623,
          17.879,
          18.142,
          18.41,
          18.826,
          19.399,
          20.32
        ],
        [
          2507.6,
          2624.9,
          2510.6,
          2976.6,
          2423.6,
          2819.9,
          2329.5,
          2344.7,
          2423.3,
          3025.7,
          2047.9,
          2612.1,
          2574.4,
          2440.7,
          2413.3,
          2504.7,
          2377.7,
          2508.6,
          2325.1,
          2365.8,
          2428.8,
          2296.2,
          2342.1,
          2162.7,
          2538.9,
          2261.4,
          2308.4,
          2237.6,
          2184.6,
          2068.0,
          2261.3,
          2275.8,
          2254.7,
          2146.5,
          2039.6,
          2057.6,
          2042.9,
          2092.0,
          2187.3,
          2194.8,
          1992.6,
          2003.0,
          2041.8,
          2019.5,
          1994.6,
          2011.9,
          1901.3,
          2037.3,
          2098.6,
          1897.5,
          1860.9,
          1917.3,
          2003.8,
          1832.3,
          1653.4,
          1720.6,
          1859.0,
          1923.2,
          1826.9,
          1869.5,
          1679.6,
          1766.7,
          1797.6,
          1759.9,
          1805.9,
          1795.7,
          1687.9,
          1718.1,
          1689.5,
          1770.4,
          1697.6,
          1564.7,
          1753.6,
          1703.7,
          1733.2,
          1791.5,
          1661.9,
          1638.6,
          1695.3,
          1674.7,
          1601.8,
          1584.8,
          1650.8,
          1514.1,
          1546.2,
          1563.8,
          1521.0,
          1493.9,
          1514.0,
          1478.5,
          1516.0,
          1504.9,
          1440.1,
          1443.0,
          1476.4,
          1409.9,
          1423.8,
          1375.8,
          1436.4,
          1466.7,
          1416.6,
          1377.7,
          1340.4,
          1316.1,
          1293.5,
          1313.0,
          1314.0,
          1323.8,
          1277.9,
          1331.3,
          1320.0,
          1258.7,
          1232.9,
          1304.3,
          1262.5,
          1269.7,
          1237.9,
          1215.5,
          1245.8,
          1210.9,
          1210.1,
          1148.6,
          1176.6,
          1170.9,
          1152.9,
          1141.2,
          1166.4,
          1137.1,
          1128.9,
          1106.9,
          1122.9,
          1114.9,
          1094.4,
          1086.7,
          1100.3,
          1088.8,
          1061.3,
          1083.1,
          1078.1,
          1008.5,
          1099.2,
          1041.9,
          1049.6,
          1070.0,
          1026.6,
          1040.6,
          1006.0,
          1019.6,
          990.96,
          962.47,
          974.5,
          960.95,
          945.02,
          970.75,
          961.04,
          947.2,
          942.6,
          928.79,
          903.64,
          885.15,
          901.63,
          893.68,
          874.17,
          861.23,
          851.5,
          838.59,
          810.03,
          810.88,
          802.57,
          780.89,
          757.08,
          746.63,
          745.04,
          725.98,
          720.13,
          701.26,
          713.76,
          717.61,
          721.24,
          705.29,
          705.53,
          718.77,
          685.55,
          680.18,
          697.06,
          684.4,
          675.58,
          661.0,
          691.66,
          664.4,
          655.06,
          662.42,
          652.62,
          642.02,
          633.11,
          624.5,
          630.4,
          649.71,
          633.0,
          624.33,
          636.4,
          624.05,
          635.84,
          636.55,
          587.03,
          625.09,
          628.44,
          607.19,
          594.82,
          599.84,
          589.96,
          575.88,
          580.45,
          577.91,
          595.89,
          541.11,
          613.68,
          571.51,
          590.28,
          554.04,
          582.08,
          577.79,
          583.05,
          556.94,
          539.04,
          539.76,
          552.61,
          525.89,
          523.22,
          521.01,
          499.02,
          502.21,
          534.97,
          522.54,
          508.01,
          482.2,
          506.79,
          498.36,
          496.08,
          500.58,
          492.98,
          473.47,
          486.63,
          481.76,
          500.73,
          482.07,
          465.65,
          474.72,
          477.57,
          476.15,
          479.09,
          468.3,
          473.2,
          491.6,
          492.34,
          494.53,
          487.98,
          497.59,
          521.87,
          466.28,
          511.03,
          526.98,
          536.97,
          545.41,
          494.12,
          516.52,
          531.34,
          531.37,
          553.97,
          569.32,
          587.67,
          624.39,
          584.53,
          607.53,
          605.22,
          621.6,
          685.83,
          685.1,
          717.65,
          750.57,
          809.67,
          781.88,
          860.59,
          879.27,
          972.53,
          1034.6,
          1138.1,
          1164.7,
          1283.6,
          1265.0,
          1363.1,
          1383.0,
          1458.0,
          1548.1,
          1699.4,
          1788.0,
          1854.3,
          1979.6,
          2179.9,
          2279.2,
          2434.8,
          2610.7,
          2774.3,
          2894.9,
          2832.1,
          3066.6,
          3069.8,
          3268.0,
          3244.7,
          3037.5,
          2897.1,
          2573.7,
          2412.2,
          2259.3,
          2019.0,
          1824.7,
          1621.6,
          1493.0,
          1331.9,
          1144.2,
          1008.5,
          903.57,
          859.03,
          789.86,
          772.69,
          685.14,
          662.47,
          585.55,
          473.11,
          432.35,
          375.66,
          335.26,
          282.41,
          261.08,
          225.76,
          210.38,
          176.18,
          145.96,
          140.81,
          117.94,
          120.05,
          103.43,
          90.748,
          74.699,
          75.482,
          67.137,
          57.71,
          52.879,
          49.741,
          46.534,
          44.572,
          37.961,
          31.893,
          31.191,
          27.771,
          25.074,
          28.757,
          26.396,
          23.366,
          28.938,
          28.69,
          30.266,
          23.503,
          22.867,
          23.697,
          24.574,
          24.788,
          21.679,
          27.562,
          25.227,
          22.462,
          25.175,
          21.118,
          17.301,
          19.667,
          22.023,
          19.661,
          16.309,
          18.508,
          18.733,
          19.616,
          21.503,
          19.309,
          15.71,
          17.373,
          15.327,
          16.49,
          16.614,
          13.485,
          15.519,
          15.285,
          17.631,
          23.905,
          15.198,
          17.199,
          12.295,
          11.234,
          12.861,
          9.878,
          11.257,
          14.921,
          16.244,
          7.42,
          8.0769,
          17.758,
          14.598,
          13.176,
          9.6988,
          8.5344,
          14.527,
          12.558,
          8.5352,
          12.682,
          9.9799,
          11.295,
          12.007,
          11.564,
          10.369,
          9.9798,
          7.0989,
          9.1054,
          8.3907,
          9.2083,
          8.9019,
          6.2306,
          7.4103,
          8.7585,
          7.478,
          9.0109,
          7.3045,
          7.8377,
          11.037,
          5.3416,
          7.1235,
          7.0058,
          8.1408,
          6.4164,
          7.326,
          7.8688,
          10.373,
          5.008,
          7.0702,
          5.6488,
          6.139,
          8.4842,
          7.8625,
          9.7134,
          12.802,
          17.315,
          25.993,
          29.656,
          46.946,
          76.096,
          150.41,
          327.04,
          593.6,
          548.88,
          300.24,
          92.696,
          33.947,
          13.544,
          5.8997,
          4.0004,
          4.4266,
          3.4388,
          8.4883,
          12.753,
          18.468,
          20.965,
          36.605,
          72.745,
          151.55,
          380.39,
          727.55,
          789.68,
          501.87,
          204.5,
          124.52,
          95.206,
          126.19,
          219.92,
          277.65,
          115.34,
          12.958,
          5.7997,
          6.2785,
          9.4096,
          13.754,
          17.04,
          21.345,
          35.695,
          76.537,
          178.08,
          239.14,
          337.71,
          413.96,
          193.59,
          84.344,
          104.62,
          97.198,
          70.01,
          38.223,
          23.668,
          18.887,
          14.956,
          18.084,
          32.911,
          137.06,
          262.34,
          131.01,
          13.954,
          3.7356,
          1.1749,
          1.1946
        ],
        [
          125.73,
          127.54,
          121.57,
          268.95,
          230.95,
          256.23,
          223.68,
          230.24,
          232.95,
          254.17,
          209.07,
          118.87,
          114.08,
          109.82,
          107.65,
          107.84,
          102.49,
          104.75,
          97.029,
          96.391,
          95.766,
          91.326,
          90.964,
          85.705,
          93.641,
          87.973,
          88.329,
          85.203,
          82.36,
          78.859,
          81.411,
          80.704,
          78.536,
          74.918,
          71.584,
          70.479,
          68.994,
          68.11,
          68.625,
          67.355,
          62.131,
          61.697,
          60.996,
          60.246,
          59.644,
          59.212,
          56.189,
          81.228,
          80.876,
          53.75,
          74.8,
          74.224,
          53.748,
          51.407,
          66.634,
          65.934,
          47.521,
          68.193,
          64.603,
          64.889,
          60.218,
          87.832,
          86.745,
          86.889,
          86.419,
          60.727,
          57.351,
          81.767,
          79.532,
          83.377,
          79.358,
          53.894,
          56.797,
          38.756,
          38.427,
          38.147,
          35.725,
          34.888,
          35.241,
          34.697,
          33.91,
          32.985,
          47.206,
          44.375,
          31.118,
          30.49,
          29.307,
          28.327,
          27.955,
          38.332,
          38.249,
          26.588,
          25.413,
          24.889,
          24.804,
          23.832,
          23.657,
          22.994,
          32.926,
          32.64,
          31.663,
          30.679,
          20.958,
          20.104,
          19.419,
          27.083,
          26.662,
          26.528,
          25.647,
          26.054,
          25.464,
          34.755,
          33.76,
          35.179,
          33.973,
          16.703,
          22.885,
          22.368,
          15.733,
          15.434,
          21.545,
          20.652,
          14.518,
          20.181,
          19.733,
          19.282,
          19.274,
          18.7,
          18.382,
          17.877,
          17.81,
          17.424,
          17.069,
          16.716,
          16.608,
          16.299,
          15.899,
          22.602,
          22.384,
          21.531,
          22.452,
          10.801,
          10.777,
          21.443,
          20.838,
          20.848,
          20.203,
          14.311,
          13.871,
          13.448,
          13.388,
          13.119,
          12.843,
          12.845,
          12.631,
          12.408,
          12.242,
          8.4937,
          8.2662,
          8.1137,
          11.589,
          11.397,
          11.198,
          10.943,
          7.5849,
          7.4167,
          7.1308,
          7.0238,
          6.9051,
          6.7155,
          6.537,
          6.4404,
          12.82,
          19.733,
          19.652,
          19.402,
          9.7414,
          9.7756,
          9.8321,
          9.6526,
          9.6793,
          9.8234,
          13.574,
          13.638,
          9.8457,
          9.7463,
          9.7149,
          13.581,
          14.034,
          9.665,
          9.6371,
          9.6724,
          9.6124,
          9.5535,
          9.5178,
          13.411,
          13.583,
          19.53,
          19.4,
          19.102,
          19.58,
          13.597,
          13.834,
          19.398,
          18.93,
          19.396,
          19.402,
          9.6217,
          13.5,
          13.669,
          9.5903,
          9.6111,
          9.7227,
          9.7843,
          10.082,
          19.14,
          20.826,
          19.731,
          20.314,
          13.854,
          14.448,
          14.345,
          14.563,
          10.127,
          10.069,
          10.167,
          10.451,
          10.328,
          14.508,
          14.617,
          10.188,
          10.27,
          15.22,
          15.21,
          10.522,
          14.463,
          15.13,
          10.611,
          10.591,
          10.638,
          10.521,
          10.275,
          10.421,
          14.604,
          15.097,
          10.361,
          10.098,
          10.13,
          10.076,
          9.9909,
          9.9187,
          9.605,
          9.6135,
          9.6465,
          9.5449,
          9.4206,
          9.2183,
          9.1867,
          18.79,
          17.179,
          18.138,
          18.468,
          18.479,
          26.417,
          24.852,
          25.522,
          12.775,
          12.672,
          12.811,
          13.049,
          18.323,
          19.302,
          12.986,
          13.113,
          13.008,
          12.981,
          13.715,
          13.484,
          13.874,
          19.996,
          20.711,
          14.161,
          15.006,
          15.042,
          15.818,
          16.32,
          17.288,
          24.553,
          26.309,
          36.368,
          37.673,
          38.728,
          39.726,
          20.678,
          30.885,
          31.887,
          32.663,
          34.047,
          36.369,
          36.776,
          38.579,
          40.739,
          60.734,
          61.966,
          60.803,
          64.714,
          32.005,
          33.403,
          33.046,
          31.168,
          42.935,
          38.675,
          36.882,
          35.134,
          32.567,
          30.028,
          27.369,
          25.678,
          23.95,
          21.569,
          19.78,
          18.339,
          24.742,
          23.283,
          23.39,
          21.762,
          15.161,
          13.982,
          8.5824,
          11.574,
          10.586,
          7.0067,
          6.3386,
          8.5423,
          7.9324,
          5.3403,
          4.836,
          4.3244,
          5.9211,
          5.3555,
          3.8043,
          3.463,
          3.2045,
          2.8296,
          2.8187,
          2.6284,
          2.4064,
          2.2656,
          2.186,
          2.0923,
          2.0183,
          1.8199,
          1.6338,
          1.5865,
          1.4775,
          2.7487,
          5.8775,
          5.6268,
          5.491,
          2.9581,
          2.9484,
          3.035,
          2.6749,
          2.5862,
          2.6485,
          2.6519,
          2.6607,
          2.4693,
          2.7939,
          2.651,
          2.4984,
          2.605,
          2.4086,
          2.1591,
          2.2727,
          2.3953,
          2.23,
          2.07,
          2.1552,
          2.1679,
          2.2003,
          2.3032,
          2.1808,
          1.9527,
          2.0271,
          1.8782,
          1.9381,
          1.9672,
          1.7617,
          1.8646,
          1.8639,
          3.8748,
          4.7353,
          3.6047,
          3.9745,
          1.6373,
          1.5666,
          1.672,
          1.4505,
          1.5586,
          1.7511,
          1.8127,
          2.4984,
          2.459,
          3.6664,
          3.4788,
          1.6037,
          1.388,
          1.289,
          3.3765,
          3.0856,
          2.4982,
          3.2146,
          1.3651,
          1.4442,
          1.4786,
          1.4582,
          1.3626,
          1.3127,
          1.1362,
          1.2321,
          1.1916,
          1.2493,
          1.2204,
          1.0191,
          1.0919,
          1.1843,
          1.0719,
          1.1611,
          1.0404,
          1.0765,
          1.7992,
          1.2569,
          1.0108,
          1.0064,
          1.06,
          0.94566,
          1.9814,
          2.0573,
          2.412,
          1.6066,
          0.97716,
          0.8684,
          0.88716,
          1.0361,
          0.97678,
          1.0732,
          1.2235,
          2.7716,
          3.4514,
          3.6796,
          4.5596,
          6.1495,
          8.7132,
          14.403,
          22.08,
          20.16,
          13.562,
          6.5989,
          3.8356,
          1.6926,
          1.1304,
          0.6698,
          0.69988,
          0.61024,
          0.90338,
          2.1805,
          2.6575,
          2.7615,
          3.6281,
          5.2483,
          8.0769,
          15.103,
          24.656,
          25.568,
          17.956,
          9.6711,
          7.2087,
          6.0962,
          7.1627,
          9.9817,
          11.678,
          6.6759,
          2.0983,
          1.4483,
          1.4835,
          0.88751,
          2.0646,
          2.3479,
          2.5464,
          3.3634,
          5.179,
          8.3261,
          10.053,
          12.756,
          14.851,
          8.9288,
          5.2275,
          5.8112,
          5.5995,
          4.7254,
          3.391,
          2.5866,
          2.3021,
          2.0476,
          2.2061,
          3.0969,
          6.7153,
          10.425,
          6.5079,
          1.9385,
          0.78358,
          0.50669,
          0.35347
        ]
      ]
    }
  }
}