{
  "entry": "11588",
  "last_updated": "2006-07-20",
  "number_of_revisions": "3",
  "histories": [
    {
      "x4_code": "(760718T)",
      "free_txt": [
        " TRANSLATED FROM SCISRS"
      ]
    },
    {
      "x4_code": "(830815A)",
      "free_txt": [
        " CONVERTED TO REACTION FORMALISM"
      ]
    }
  ],
  "bib_record": {
    "authors": [
      {
        "name": "J.A.Farrell"
      },
      {
        "name": "E.G.Bilpuch"
      },
      {
        "name": "H.W.Newson"
      }
    ],
    "institutes": [
      {
        "x4_code": "(1USADKE)",
        "free_txt": []
      }
    ],
    "references": {
      "0": [
        {
          "x4_code": "(W,BILPUCH,6309)",
          "free_txt": [],
          "publication_year": "1963"
        }
      ]
    }
  },
  "data_tables": {
    "001": {
      "extra_information": {
        "status": {
          "0": [
            {
              "x4_code": "(SCSRS)",
              "free_txt": []
            }
          ]
        }
      }
    },
    "002": {
      "reaction": {
        "0": {
          "x4_code": "(30-ZN-68(N,TOT),,SIG)",
          "0": {
            "code": [
              "30-ZN-68",
              [
                "N,TOT"
              ],
              ",,SIG"
            ],
            "type": null,
            "target": "30-ZN-68",
            "process": "N,TOT",
            "sf49": ",,SIG",
            "sf4": null,
            "sf5": null,
            "sf6": "SIG",
            "sf7": null,
            "sf8": null,
            "sf9": null
          },
          "type": null,
          "free_text": ""
        }
      },
      "extra_information": {},
      "common": null,
      "data": {
        "heads": [
          "EN",
          "DATA"
        ],
        "units": [
          "MEV",
          "B"
        ],
        "data": [
          [
            0.0305,
            0.0315,
            0.0325,
            0.0335,
            0.0345,
            0.0355,
            0.0365,
            0.0375,
            0.0385,
            0.0395,
            0.0405,
            0.0415,
            0.0425,
            0.0435,
            0.0445,
            0.0455,
            0.0465,
            0.0475,
            0.0485,
            0.0495,
            0.05,
            0.05,
            0.05,
            0.05,
            0.0505,
            0.0505,
            0.051,
            0.051,
            0.051,
            0.0515,
            0.052,
            0.0525,
            0.053,
            0.0535,
            0.054,
            0.0545,
            0.055,
            0.0555,
            0.056,
            0.0565,
            0.057,
            0.0575,
            0.058,
            0.0585,
            0.059,
            0.0595,
            0.06,
            0.06,
            0.0605,
            0.0605,
            0.061,
            0.061,
            0.0615,
            0.0615,
            0.062,
            0.062,
            0.0625,
            0.0625,
            0.063,
            0.063,
            0.0635,
            0.0635,
            0.064,
            0.064,
            0.0645,
            0.0645,
            0.065,
            0.065,
            0.0655,
            0.0655,
            0.066,
            0.066,
            0.0665,
            0.0665,
            0.067,
            0.067,
            0.0675,
            0.0675,
            0.068,
            0.068,
            0.0685,
            0.0685,
            0.069,
            0.069,
            0.0695,
            0.0695,
            0.07,
            0.07,
            0.0705,
            0.0705,
            0.071,
            0.071,
            0.0715,
            0.0715,
            0.072,
            0.072,
            0.0725,
            0.0725,
            0.073,
            0.073,
            0.0735,
            0.074,
            0.0745,
            0.075,
            0.0755,
            0.076,
            0.0765,
            0.077,
            0.0775,
            0.078,
            0.078,
            0.0785,
            0.0785,
            0.079,
            0.079,
            0.0795,
            0.0795,
            0.08,
            0.08,
            0.0805,
            0.0805,
            0.081,
            0.0815,
            0.082,
            0.0825,
            0.083,
            0.0835,
            0.084,
            0.0845,
            0.085,
            0.0855,
            0.086,
            0.0865,
            0.087,
            0.0875,
            0.088,
            0.0885,
            0.089,
            0.0895,
            0.09,
            0.0905,
            0.091,
            0.0915,
            0.092,
            0.0925,
            0.093,
            0.0935,
            0.094,
            0.0945,
            0.095,
            0.0955,
            0.096,
            0.0965,
            0.097,
            0.0975,
            0.098,
            0.0985,
            0.099,
            0.0995,
            0.1,
            0.1005,
            0.101,
            0.1015,
            0.102,
            0.1025,
            0.103,
            0.103,
            0.1035,
            0.1035,
            0.104,
            0.104,
            0.1045,
            0.1045,
            0.105,
            0.105,
            0.1055,
            0.1055,
            0.106,
            0.106,
            0.1065,
            0.1065,
            0.107,
            0.107,
            0.1075,
            0.1075,
            0.108,
            0.108,
            0.1085,
            0.1085,
            0.109,
            0.1095,
            0.11,
            0.11,
            0.1105,
            0.1105,
            0.111,
            0.111,
            0.1115,
            0.1115,
            0.112,
            0.112,
            0.1125,
            0.1125,
            0.113,
            0.113,
            0.1135,
            0.1135,
            0.114,
            0.114,
            0.1145,
            0.115,
            0.1155,
            0.116,
            0.1165,
            0.117,
            0.1175,
            0.118,
            0.1185,
            0.119,
            0.1195,
            0.12,
            0.1205,
            0.121,
            0.1215,
            0.122,
            0.1225,
            0.123,
            0.1235,
            0.124,
            0.1245,
            0.125,
            0.1255,
            0.126,
            0.1265,
            0.127,
            0.1275,
            0.128,
            0.1285,
            0.129,
            0.1295,
            0.13,
            0.1305,
            0.131,
            0.1315,
            0.132,
            0.1325,
            0.133,
            0.1335,
            0.134,
            0.1345,
            0.135,
            0.1355,
            0.136,
            0.1365,
            0.137,
            0.1375,
            0.138,
            0.1385,
            0.139,
            0.1395,
            0.14,
            0.1405,
            0.141,
            0.1415,
            0.142,
            0.1425,
            0.143,
            0.1435,
            0.144,
            0.1445,
            0.145,
            0.1455,
            0.146,
            0.1465,
            0.1465,
            0.147,
            0.147,
            0.1475,
            0.1475,
            0.148,
            0.148,
            0.1485,
            0.1485,
            0.149,
            0.149,
            0.1495,
            0.1495,
            0.15,
            0.15,
            0.15,
            0.1505,
            0.1505,
            0.1505,
            0.1505,
            0.151,
            0.151,
            0.151,
            0.1515,
            0.1515,
            0.1515,
            0.152,
            0.152,
            0.152,
            0.1525,
            0.1525,
            0.153,
            0.153,
            0.1535,
            0.1535,
            0.154,
            0.154,
            0.1545,
            0.1545,
            0.155,
            0.155,
            0.1555,
            0.1555,
            0.156,
            0.156,
            0.1565,
            0.1565,
            0.157,
            0.157,
            0.1575,
            0.1575,
            0.158,
            0.158,
            0.1585,
            0.1585,
            0.159,
            0.159,
            0.1595,
            0.1595,
            0.16,
            0.16,
            0.1605,
            0.1605,
            0.161,
            0.161,
            0.1615,
            0.1615,
            0.162,
            0.162,
            0.1625,
            0.1625,
            0.163,
            0.163,
            0.1635,
            0.1635,
            0.164,
            0.164,
            0.1645,
            0.1645,
            0.165,
            0.165,
            0.1655,
            0.1655,
            0.166,
            0.166,
            0.1665,
            0.1665,
            0.167,
            0.167,
            0.1675,
            0.1675,
            0.168,
            0.168,
            0.1685,
            0.1685,
            0.169,
            0.169,
            0.1695,
            0.1695,
            0.17,
            0.1705,
            0.171,
            0.1715,
            0.172,
            0.1725,
            0.173,
            0.1735,
            0.174,
            0.1745,
            0.175,
            0.1755,
            0.176,
            0.1765,
            0.177,
            0.1775,
            0.178,
            0.1785,
            0.179,
            0.1795,
            0.18,
            0.1805,
            0.181,
            0.1815,
            0.182,
            0.1825,
            0.183,
            0.1835,
            0.184,
            0.1845,
            0.185,
            0.1855,
            0.186,
            0.1865,
            0.187,
            0.1875,
            0.188,
            0.1885,
            0.189,
            0.1895,
            0.19,
            0.19,
            0.1905,
            0.1905,
            0.191,
            0.1915,
            0.192,
            0.1925,
            0.193,
            0.1935,
            0.194,
            0.1945,
            0.195,
            0.195,
            0.1955,
            0.1955,
            0.196,
            0.196,
            0.1965,
            0.1965,
            0.197,
            0.197,
            0.1975,
            0.1975,
            0.198,
            0.198,
            0.1985,
            0.1985,
            0.199,
            0.199,
            0.1995,
            0.1995,
            0.2,
            0.2,
            0.2,
            0.2005,
            0.2005,
            0.201,
            0.201,
            0.2015,
            0.2015,
            0.202,
            0.202,
            0.2025,
            0.2025,
            0.203,
            0.203,
            0.2035,
            0.2035,
            0.204,
            0.204,
            0.2045,
            0.2045,
            0.205,
            0.205,
            0.2055,
            0.2055,
            0.206,
            0.206,
            0.2065,
            0.2065,
            0.207,
            0.207,
            0.2075,
            0.208,
            0.2085,
            0.209,
            0.2095,
            0.21,
            0.2105,
            0.211,
            0.2115,
            0.212,
            0.2125,
            0.213,
            0.2135,
            0.214,
            0.2145,
            0.215,
            0.2155,
            0.216,
            0.2165,
            0.217,
            0.2175,
            0.218,
            0.2185,
            0.219,
            0.2195,
            0.22,
            0.2205,
            0.221,
            0.2215,
            0.222,
            0.2225,
            0.223,
            0.2235,
            0.224,
            0.2245,
            0.225,
            0.2255,
            0.226,
            0.2265,
            0.227,
            0.2275,
            0.228,
            0.2285,
            0.229,
            0.2295,
            0.23,
            0.2305,
            0.231,
            0.2315,
            0.232,
            0.2325,
            0.233,
            0.2335,
            0.234,
            0.2345,
            0.235,
            0.2355,
            0.236,
            0.2365,
            0.237,
            0.2375,
            0.238,
            0.2385,
            0.239,
            0.2395,
            0.24,
            0.245,
            0.245,
            0.2455,
            0.2455,
            0.246,
            0.246,
            0.2465,
            0.2465,
            0.247,
            0.247,
            0.2475,
            0.2475,
            0.248,
            0.248,
            0.2485,
            0.2485,
            0.249,
            0.249,
            0.249,
            0.2495,
            0.2495,
            0.25,
            0.25,
            0.25,
            0.2505,
            0.2505,
            0.251,
            0.251,
            0.2515,
            0.2515,
            0.252,
            0.252,
            0.2525,
            0.253,
            0.2535,
            0.255,
            0.2555,
            0.256,
            0.2565,
            0.257,
            0.2575,
            0.258,
            0.2585,
            0.259,
            0.2595,
            0.26,
            0.2605,
            0.2605,
            0.2605,
            0.262,
            0.2625,
            0.263,
            0.2635,
            0.264,
            0.2645,
            0.265,
            0.2655,
            0.266,
            0.2665,
            0.267,
            0.2675,
            0.268,
            0.2685,
            0.269,
            0.2695,
            0.27,
            0.2705,
            0.271,
            0.2715,
            0.272,
            0.2725,
            0.273,
            0.2735,
            0.274,
            0.2745,
            0.275,
            0.2755,
            0.276,
            0.2765,
            0.277,
            0.2775,
            0.278,
            0.2785,
            0.279,
            0.2795,
            0.28,
            0.2805,
            0.281,
            0.2815,
            0.282,
            0.2825,
            0.283,
            0.2835,
            0.284,
            0.2845,
            0.285,
            0.2855,
            0.286,
            0.2865,
            0.287,
            0.2875,
            0.288,
            0.2885,
            0.289,
            0.2895,
            0.29,
            0.2905,
            0.291,
            0.2915,
            0.292,
            0.2925,
            0.293,
            0.2935,
            0.294,
            0.294,
            0.2945,
            0.295,
            0.295,
            0.2955,
            0.296,
            0.296,
            0.2965,
            0.2965,
            0.297,
            0.297,
            0.2975,
            0.298,
            0.2985,
            0.299,
            0.2995,
            0.3,
            0.3005,
            0.301,
            0.3015,
            0.302,
            0.3025,
            0.303,
            0.3035,
            0.304,
            0.3045,
            0.305,
            0.3055,
            0.306,
            0.3065,
            0.307,
            0.3075,
            0.308,
            0.3085,
            0.309,
            0.3095,
            0.31,
            0.3105,
            0.311,
            0.3115,
            0.312,
            0.3125,
            0.313,
            0.3135,
            0.3145,
            0.315,
            0.3155,
            0.316,
            0.3165,
            0.317,
            0.3175,
            0.318,
            0.3185,
            0.319,
            0.3195,
            0.32,
            0.3205,
            0.321,
            0.3215,
            0.322,
            0.3225,
            0.323,
            0.3235,
            0.324,
            0.3245,
            0.325,
            0.3255,
            0.326,
            0.3265,
            0.327,
            0.3275,
            0.328,
            0.3285,
            0.329,
            0.3295,
            0.33,
            0.3305,
            0.331,
            0.3315,
            0.332,
            0.3325,
            0.333,
            0.3335,
            0.334,
            0.3345,
            0.335,
            0.3355,
            0.336,
            0.3365,
            0.337,
            0.3375,
            0.338,
            0.3385,
            0.339,
            0.3395,
            0.34,
            0.341,
            0.3415,
            0.342,
            0.3425,
            0.343,
            0.3435,
            0.344,
            0.3445,
            0.345,
            0.3455,
            0.346,
            0.3465,
            0.347,
            0.3475,
            0.348,
            0.3485,
            0.349,
            0.3495,
            0.35,
            0.3505,
            0.351,
            0.3515,
            0.352,
            0.3525,
            0.353,
            0.3535,
            0.354,
            0.3545,
            0.355,
            0.3555,
            0.356,
            0.3565,
            0.357,
            0.3575,
            0.358,
            0.3585,
            0.359,
            0.3595,
            0.36,
            0.3605,
            0.361,
            0.3615,
            0.362,
            0.3625,
            0.363,
            0.3635,
            0.364,
            0.3645,
            0.365,
            0.3655,
            0.366,
            0.3665,
            0.367,
            0.3675,
            0.368,
            0.3685,
            0.369,
            0.3695,
            0.37,
            0.3705,
            0.371,
            0.3715,
            0.372,
            0.3725,
            0.373,
            0.3735,
            0.374,
            0.3745,
            0.375,
            0.375,
            0.3755,
            0.3755,
            0.376,
            0.376,
            0.3765,
            0.3765,
            0.377,
            0.377,
            0.3775,
            0.3775,
            0.378,
            0.378,
            0.3785,
            0.3785,
            0.379,
            0.3795,
            0.38,
            0.3805,
            0.381,
            0.3815,
            0.382,
            0.3825,
            0.383,
            0.3835,
            0.384,
            0.3845,
            0.385,
            0.3855,
            0.386,
            0.3865,
            0.387,
            0.3875,
            0.388,
            0.3885,
            0.389,
            0.3895,
            0.39,
            0.3905,
            0.391,
            0.3915,
            0.392,
            0.3925,
            0.393,
            0.3935,
            0.394,
            0.3945,
            0.395,
            0.3955,
            0.396,
            0.3965,
            0.397,
            0.3975,
            0.398,
            0.3985,
            0.399,
            0.3995,
            0.4,
            0.4005,
            0.401,
            0.4015,
            0.402,
            0.4025,
            0.403,
            0.4035,
            0.404,
            0.4045,
            0.405,
            0.4055,
            0.406,
            0.4065,
            0.407,
            0.4075,
            0.408,
            0.4085,
            0.409,
            0.4095,
            0.4105,
            0.411,
            0.4115,
            0.412,
            0.4125,
            0.413,
            0.4135,
            0.414,
            0.4145,
            0.415,
            0.4155,
            0.416,
            0.4165,
            0.417,
            0.4175,
            0.418,
            0.4185,
            0.419,
            0.4195,
            0.42,
            0.4205,
            0.421,
            0.4215,
            0.422,
            0.4225,
            0.423,
            0.4235,
            0.424,
            0.4245,
            0.425,
            0.4255,
            0.426,
            0.4265,
            0.427,
            0.4275,
            0.428,
            0.4285,
            0.429,
            0.4295,
            0.43,
            0.4305,
            0.431,
            0.4315,
            0.432,
            0.4325,
            0.433,
            0.4335,
            0.434,
            0.4345,
            0.435,
            0.4355,
            0.436,
            0.4365,
            0.437,
            0.4375,
            0.438,
            0.4385,
            0.439,
            0.4395,
            0.44,
            0.4405,
            0.441,
            0.4415,
            0.442,
            0.4425,
            0.443,
            0.4435,
            0.444,
            0.4445,
            0.445,
            0.4455,
            0.446,
            0.4465,
            0.447,
            0.4475,
            0.448,
            0.4485,
            0.449,
            0.4495,
            0.45,
            0.4505,
            0.451,
            0.4515,
            0.452,
            0.4525,
            0.453,
            0.4535,
            0.454,
            0.4545,
            0.455,
            0.4555,
            0.456,
            0.4565,
            0.457,
            0.4575,
            0.458,
            0.4585,
            0.459,
            0.4595,
            0.46,
            0.4605,
            0.461,
            0.4615,
            0.462,
            0.4625,
            0.463,
            0.4635,
            0.464,
            0.4645,
            0.465,
            0.4655,
            0.466,
            0.4665,
            0.467,
            0.4675,
            0.468,
            0.4685,
            0.469,
            0.4695,
            0.47,
            0.4705,
            0.471,
            0.4715,
            0.472,
            0.4725,
            0.473,
            0.4735,
            0.474,
            0.4745,
            0.475,
            0.4755,
            0.476,
            0.4765,
            0.477,
            0.4775,
            0.478,
            0.4785,
            0.479,
            0.4795,
            0.48,
            0.4805,
            0.481,
            0.4815,
            0.482,
            0.4825,
            0.483,
            0.4835,
            0.484,
            0.4845,
            0.485,
            0.4855,
            0.486,
            0.4865,
            0.487,
            0.4875,
            0.488,
            0.4885,
            0.489,
            0.4895,
            0.49,
            0.4905,
            0.491,
            0.4915,
            0.492,
            0.4925,
            0.493,
            0.4935,
            0.494,
            0.4945,
            0.495,
            0.4955,
            0.496,
            0.4965,
            0.497,
            0.4975,
            0.498,
            0.4985,
            0.499,
            0.4995,
            0.5,
            0.5005,
            0.501,
            0.5015,
            0.502,
            0.5025,
            0.503,
            0.5035,
            0.504,
            0.5045,
            0.505,
            0.5055,
            0.506,
            0.5065,
            0.507,
            0.5075,
            0.508,
            0.5085,
            0.509,
            0.5095,
            0.51,
            0.5105,
            0.511,
            0.5115,
            0.512,
            0.5125,
            0.513,
            0.5135,
            0.514,
            0.5145,
            0.515,
            0.5155,
            0.516,
            0.5165,
            0.517,
            0.5175,
            0.518,
            0.5185,
            0.519,
            0.5195,
            0.52,
            0.5205,
            0.521,
            0.5215,
            0.522,
            0.5225,
            0.523
          ],
          [
            5.911,
            9.352,
            14.07,
            14.85,
            17.9,
            20.82,
            19.82,
            17.89,
            15.23,
            12.84,
            11.63,
            9.883,
            7.925,
            7.589,
            6.595,
            7.595,
            8.075,
            6.458,
            5.293,
            4.562,
            4.661,
            3.73,
            4.833,
            4.208,
            3.658,
            5.816,
            5.221,
            4.28,
            5.018,
            6.001,
            8.24,
            8.959,
            9.258,
            7.758,
            7.346,
            6.136,
            5.288,
            4.787,
            5.749,
            5.059,
            4.169,
            4.685,
            4.627,
            4.247,
            5.302,
            4.4,
            3.626,
            3.231,
            3.935,
            3.868,
            3.673,
            2.959,
            3.516,
            3.034,
            2.89,
            2.448,
            2.908,
            2.08,
            2.541,
            2.345,
            2.796,
            2.586,
            3.488,
            1.604,
            2.848,
            2.619,
            2.969,
            7.068,
            2.961,
            11.47,
            3.528,
            15.96,
            2.443,
            16.75,
            3.853,
            17.15,
            3.11,
            15.58,
            2.524,
            13.55,
            2.235,
            12.6,
            2.051,
            11.41,
            1.844,
            9.896,
            1.706,
            8.597,
            0.963,
            9.125,
            0.928,
            8.448,
            0.89,
            8.217,
            0.688,
            8.524,
            0.576,
            7.765,
            0.602,
            7.195,
            0.854,
            3.095,
            7.04,
            9.376,
            9.519,
            5.773,
            3.941,
            4.474,
            9.746,
            12.51,
            12.56,
            15.3,
            14.72,
            13.42,
            8.121,
            8.233,
            7.126,
            7.042,
            9.323,
            9.305,
            12.76,
            12.39,
            13.96,
            12.87,
            11.39,
            9.594,
            9.258,
            7.863,
            7.305,
            5.306,
            4.972,
            4.177,
            4.928,
            5.47,
            7.309,
            6.406,
            5.869,
            3.41,
            3.27,
            1.832,
            1.251,
            1.107,
            3.395,
            3.757,
            7.409,
            16.28,
            17.11,
            16.94,
            13.33,
            15.82,
            15.42,
            13.2,
            11.91,
            11.44,
            8.877,
            8.938,
            8.17,
            6.829,
            6.589,
            6.3,
            5.992,
            5.576,
            7.175,
            6.232,
            5.502,
            3.856,
            6.678,
            3.612,
            5.327,
            2.332,
            4.718,
            1.912,
            5.087,
            2.457,
            5.728,
            1.508,
            7.387,
            1.009,
            7.207,
            1.872,
            5.045,
            1.908,
            4.414,
            4.362,
            2.182,
            6.983,
            3.382,
            9.888,
            2.566,
            3.628,
            6.397,
            14.93,
            9.671,
            13.96,
            14.06,
            14.0,
            16.04,
            12.72,
            16.94,
            11.8,
            16.03,
            10.94,
            15.68,
            10.38,
            13.46,
            9.986,
            12.41,
            8.989,
            11.21,
            8.661,
            6.773,
            6.25,
            3.755,
            3.879,
            6.423,
            9.954,
            10.83,
            10.71,
            9.843,
            8.397,
            8.267,
            8.392,
            7.63,
            6.616,
            6.712,
            6.118,
            4.288,
            4.644,
            5.073,
            5.785,
            6.189,
            4.743,
            3.232,
            2.933,
            5.746,
            8.886,
            11.03,
            12.04,
            11.43,
            9.692,
            9.504,
            9.081,
            9.155,
            8.641,
            8.156,
            8.538,
            8.227,
            6.988,
            7.084,
            6.926,
            6.418,
            7.119,
            5.943,
            5.97,
            5.75,
            6.494,
            5.679,
            4.63,
            4.532,
            5.018,
            7.478,
            7.631,
            8.015,
            6.588,
            6.086,
            6.091,
            6.195,
            5.611,
            5.344,
            6.297,
            6.818,
            5.093,
            4.403,
            3.653,
            4.059,
            4.8,
            3.385,
            5.505,
            4.494,
            7.431,
            5.292,
            8.941,
            7.388,
            7.711,
            6.658,
            8.102,
            7.413,
            7.034,
            6.712,
            5.802,
            6.39,
            7.369,
            5.141,
            6.252,
            6.731,
            7.162,
            6.022,
            7.014,
            6.673,
            6.733,
            6.697,
            6.586,
            5.092,
            5.752,
            6.469,
            6.679,
            5.713,
            6.274,
            5.345,
            5.852,
            5.037,
            6.808,
            5.971,
            6.046,
            7.156,
            5.269,
            8.923,
            4.544,
            7.742,
            5.175,
            7.362,
            5.49,
            7.394,
            4.802,
            6.736,
            5.234,
            6.769,
            4.603,
            6.748,
            5.12,
            6.522,
            5.265,
            7.075,
            5.357,
            6.886,
            5.677,
            6.066,
            5.258,
            4.155,
            5.019,
            3.888,
            5.149,
            4.573,
            6.161,
            7.372,
            6.297,
            7.888,
            5.717,
            8.569,
            3.888,
            7.686,
            4.512,
            7.926,
            3.872,
            6.676,
            3.584,
            6.895,
            4.588,
            6.236,
            5.915,
            6.249,
            7.113,
            5.692,
            6.948,
            6.089,
            6.792,
            6.295,
            5.796,
            5.599,
            5.741,
            5.788,
            4.987,
            5.956,
            4.525,
            4.506,
            4.256,
            5.415,
            4.998,
            4.938,
            4.414,
            4.237,
            4.521,
            4.499,
            4.598,
            4.696,
            4.313,
            4.362,
            2.526,
            3.764,
            3.902,
            2.561,
            2.337,
            1.723,
            1.37,
            0.463,
            1.669,
            3.376,
            6.505,
            9.255,
            8.818,
            10.1,
            9.519,
            8.642,
            8.747,
            8.367,
            7.854,
            6.394,
            5.858,
            5.124,
            4.222,
            2.752,
            4.899,
            6.942,
            8.81,
            13.35,
            7.948,
            14.65,
            8.167,
            7.815,
            8.084,
            6.876,
            6.639,
            6.63,
            5.083,
            5.54,
            6.003,
            2.109,
            5.303,
            5.252,
            4.757,
            7.206,
            5.042,
            8.126,
            4.455,
            9.54,
            4.02,
            9.996,
            3.584,
            9.212,
            4.368,
            9.402,
            2.896,
            8.242,
            3.338,
            7.448,
            2.955,
            7.234,
            3.111,
            2.992,
            6.062,
            3.59,
            5.318,
            5.176,
            4.055,
            4.75,
            2.788,
            5.301,
            4.286,
            2.949,
            5.169,
            1.988,
            7.943,
            3.834,
            8.206,
            7.519,
            8.438,
            7.549,
            8.906,
            8.098,
            7.477,
            6.269,
            6.842,
            6.134,
            6.624,
            7.932,
            6.954,
            9.11,
            9.43,
            8.822,
            8.318,
            8.641,
            8.014,
            7.539,
            7.41,
            6.613,
            7.052,
            7.105,
            7.468,
            6.893,
            6.793,
            5.221,
            5.866,
            5.69,
            5.219,
            6.745,
            5.388,
            5.398,
            5.307,
            4.651,
            4.582,
            4.637,
            5.368,
            5.178,
            3.764,
            4.368,
            3.886,
            3.744,
            3.655,
            3.587,
            2.835,
            2.681,
            2.906,
            2.629,
            1.289,
            1.798,
            2.099,
            5.003,
            6.223,
            6.882,
            7.861,
            7.072,
            6.475,
            5.885,
            5.057,
            3.714,
            3.18,
            2.915,
            4.174,
            5.425,
            7.105,
            8.093,
            8.891,
            8.321,
            7.959,
            7.424,
            5.653,
            5.847,
            5.848,
            5.188,
            4.273,
            6.044,
            5.542,
            4.211,
            3.691,
            5.012,
            3.019,
            8.401,
            3.431,
            8.792,
            3.582,
            9.239,
            6.108,
            9.041,
            6.795,
            7.671,
            8.971,
            6.459,
            9.372,
            9.621,
            7.628,
            6.395,
            5.851,
            7.241,
            8.219,
            6.121,
            5.376,
            7.905,
            4.857,
            6.303,
            8.045,
            5.367,
            6.835,
            5.886,
            4.684,
            5.751,
            6.626,
            4.648,
            5.857,
            5.106,
            5.348,
            7.531,
            8.791,
            8.163,
            7.888,
            6.744,
            7.493,
            6.342,
            6.058,
            5.829,
            5.179,
            5.922,
            5.514,
            5.146,
            4.108,
            3.99,
            3.41,
            4.066,
            2.108,
            2.483,
            5.388,
            7.778,
            6.494,
            6.792,
            5.592,
            5.501,
            5.479,
            6.225,
            6.026,
            6.584,
            6.813,
            6.094,
            5.74,
            5.839,
            5.399,
            4.859,
            4.599,
            4.189,
            3.242,
            3.482,
            2.915,
            4.832,
            4.814,
            5.422,
            4.714,
            4.069,
            2.38,
            2.352,
            0.297,
            1.603,
            4.073,
            6.239,
            7.754,
            8.575,
            6.025,
            5.12,
            4.104,
            5.084,
            5.567,
            7.365,
            8.044,
            8.857,
            8.263,
            9.826,
            9.816,
            9.451,
            8.116,
            7.239,
            7.994,
            7.595,
            6.012,
            6.417,
            6.31,
            6.929,
            7.794,
            7.294,
            5.348,
            6.947,
            6.333,
            4.515,
            5.651,
            5.634,
            6.877,
            6.144,
            7.124,
            7.7,
            6.697,
            6.449,
            6.022,
            6.442,
            6.196,
            6.482,
            8.153,
            7.111,
            6.93,
            5.1,
            6.209,
            6.183,
            5.853,
            5.891,
            5.248,
            5.047,
            4.942,
            5.149,
            4.166,
            4.76,
            4.493,
            4.965,
            6.49,
            4.757,
            4.403,
            3.443,
            2.527,
            2.525,
            3.556,
            5.12,
            6.422,
            6.923,
            6.261,
            5.769,
            5.653,
            5.556,
            4.023,
            3.748,
            3.484,
            3.927,
            6.213,
            6.582,
            6.922,
            6.503,
            5.665,
            4.891,
            5.011,
            3.57,
            2.592,
            3.786,
            5.86,
            6.192,
            6.726,
            6.021,
            6.854,
            5.937,
            6.483,
            5.9,
            3.074,
            3.083,
            4.054,
            6.367,
            7.323,
            6.783,
            7.526,
            6.771,
            6.657,
            6.796,
            7.789,
            7.436,
            5.802,
            6.08,
            5.827,
            4.839,
            4.522,
            4.619,
            6.137,
            6.251,
            6.85,
            6.589,
            6.664,
            6.132,
            5.802,
            5.583,
            6.392,
            5.417,
            5.865,
            6.076,
            5.545,
            4.774,
            6.606,
            6.65,
            6.185,
            5.662,
            5.498,
            5.17,
            4.291,
            5.38,
            5.526,
            5.652,
            6.611,
            6.534,
            7.15,
            6.543,
            6.237,
            5.787,
            6.126,
            5.695,
            4.995,
            5.214,
            5.4,
            5.227,
            6.801,
            8.469,
            6.826,
            6.483,
            6.885,
            5.555,
            6.427,
            5.853,
            4.266,
            5.296,
            4.284,
            4.988,
            5.702,
            5.149,
            4.574,
            4.245,
            4.475,
            4.173,
            4.079,
            3.217,
            3.46,
            4.404,
            4.835,
            5.601,
            4.236,
            4.014,
            3.698,
            4.341,
            5.277,
            4.993,
            5.204,
            5.055,
            4.476,
            4.319,
            4.026,
            4.684,
            5.297,
            4.645,
            3.92,
            3.872,
            3.092,
            3.176,
            2.05,
            2.965,
            2.219,
            3.637,
            4.54,
            7.01,
            6.302,
            6.205,
            7.394,
            6.539,
            6.811,
            6.105,
            6.222,
            4.27,
            4.595,
            3.314,
            4.419,
            3.079,
            4.362,
            5.203,
            5.89,
            6.158,
            7.019,
            6.424,
            5.817,
            5.812,
            6.003,
            5.696,
            5.849,
            5.424,
            6.267,
            5.437,
            5.137,
            5.181,
            5.685,
            6.237,
            5.476,
            5.57,
            4.914,
            5.314,
            4.783,
            4.618,
            4.003,
            4.371,
            4.227,
            4.959,
            4.049,
            4.326,
            4.197,
            4.226,
            5.903,
            6.755,
            6.388,
            5.531,
            4.956,
            5.034,
            5.023,
            5.537,
            5.247,
            4.334,
            4.414,
            4.337,
            3.83,
            4.021,
            2.429,
            4.729,
            4.663,
            4.785,
            4.901,
            5.3,
            4.563,
            4.442,
            4.141,
            4.045,
            3.162,
            4.596,
            3.977,
            4.061,
            4.007,
            5.026,
            5.529,
            4.549,
            4.165,
            3.929,
            3.777,
            3.322,
            3.217,
            3.573,
            3.675,
            3.298,
            3.879,
            3.591,
            2.802,
            2.201,
            3.18,
            3.465,
            3.9,
            3.152,
            3.687,
            4.044,
            3.332,
            4.038,
            4.135,
            2.416,
            3.173,
            3.574,
            3.579,
            3.379,
            3.865,
            4.136,
            4.04,
            2.516,
            4.744,
            5.364,
            7.433,
            7.472,
            6.583,
            5.021,
            5.457,
            6.626,
            6.733,
            5.758,
            5.29,
            4.879,
            3.457,
            2.767,
            3.134,
            4.022,
            4.525,
            6.256,
            4.596,
            6.718,
            4.782,
            5.361,
            4.074,
            4.45,
            4.573,
            5.138,
            4.479,
            4.628,
            4.68,
            3.776,
            3.864,
            3.641,
            4.035,
            6.497,
            4.821,
            4.983,
            4.564,
            4.738,
            4.242,
            2.969,
            4.545,
            5.0,
            6.342,
            7.043,
            6.012,
            6.947,
            5.656,
            5.923,
            5.749,
            5.921,
            5.291,
            5.909,
            5.904,
            5.594,
            4.687,
            4.521,
            4.412,
            5.022,
            4.336,
            4.107,
            5.044,
            4.388,
            4.354,
            3.321,
            2.757,
            1.596,
            1.902,
            2.011,
            3.292,
            3.005,
            3.023,
            4.711,
            5.094,
            5.446,
            4.998,
            5.792,
            5.754,
            5.372,
            5.29,
            5.756,
            6.137,
            7.209,
            5.605,
            5.15,
            4.755,
            1.706,
            1.762,
            5.428,
            6.26,
            7.147,
            5.679,
            4.563,
            5.597,
            4.771,
            5.053,
            4.181,
            4.862,
            4.894,
            5.154,
            3.918,
            4.768,
            5.74,
            4.981,
            5.708,
            5.983,
            6.372,
            5.956,
            6.161,
            5.884,
            4.431,
            4.34,
            4.35,
            4.534,
            3.724,
            4.126,
            4.701,
            4.125,
            5.257,
            4.745,
            3.669,
            5.38,
            4.833,
            4.223,
            3.104,
            4.048,
            3.243,
            2.901,
            3.738,
            3.072,
            2.907,
            3.414,
            1.661,
            2.738,
            2.036,
            3.264,
            3.812,
            4.0,
            4.094,
            3.601,
            4.778,
            5.433,
            5.15,
            4.723,
            5.077,
            5.122,
            4.795,
            4.392,
            5.823,
            5.874,
            4.386,
            2.695,
            3.964,
            4.565,
            4.537,
            4.079,
            4.279,
            3.693,
            4.015,
            4.764,
            4.58,
            6.17,
            4.046,
            3.398,
            4.265,
            2.705,
            4.127,
            4.537,
            4.239,
            2.234,
            3.916,
            3.6,
            3.428,
            2.572,
            1.729,
            1.47,
            3.346,
            6.927,
            8.529,
            5.635,
            5.473,
            5.35,
            3.586,
            3.22,
            2.556,
            3.798,
            3.45,
            4.549,
            5.219,
            3.474,
            4.064,
            4.141,
            4.654,
            5.512
          ]
        ]
      }
    }
  }
}