{
  "bib": {
    "title": "Fission Cross Sections From Pommard.",
    "authors": [
      {
        "name": "J.A.Farrell"
      }
    ],
    "institutes": [
      {
        "x4_code": "(1USALAS)",
        "free_txt": []
      }
    ],
    "references": {
      "0": [
        {
          "x4_code": "(R,LA-4420,3,197006)",
          "free_txt": [],
          "publication_year": "1970"
        }
      ]
    },
    "history": [
      {
        "x4_code": "(19710408C)",
        "free_txt": []
      },
      {
        "x4_code": "(19810529A)",
        "free_txt": [
          " Converted to REACTION formalism"
        ]
      },
      {
        "x4_code": "(19990907A)",
        "free_txt": [
          " Converted to new date formalism."
        ]
      },
      {
        "x4_code": "(20101016A)",
        "free_txt": [
          " VM: BIB updates.",
          "            Some data moved from subentry 002 to 003."
        ]
      }
    ]
  },
  "10055-001": {
    "extra_information": {
      "analysis": {
        "0": [
          {
            "x4_code": null,
            "free_txt": [
              " One manual (projection microscope) and two automatic",
              " Programmed oscilloscope light source) reading of one",
              " recorded signal are averaged."
            ]
          }
        ]
      },
      "correction": {
        "0": [
          {
            "x4_code": null,
            "free_txt": [
              "No corrections for resolution or for target impurities."
            ]
          }
        ]
      },
      "detector": {
        "0": [
          {
            "x4_code": "(SOLST)",
            "free_txt": [
              " Solid state detector in current recording mode."
            ]
          }
        ]
      },
      "err-analys": {
        "0": [
          {
            "x4_code": "(ERR-T)",
            "free_txt": []
          },
          {
            "x4_code": "(ERR-SYS)",
            "free_txt": [
              " Systematic uncertainty."
            ]
          }
        ]
      },
      "inc-source": {
        "0": [
          {
            "x4_code": "(EXPLO)",
            "free_txt": [
              " Pommard underground nuclear explosion."
            ]
          }
        ]
      },
      "inc-spect": {
        "0": [
          {
            "x4_code": null,
            "free_txt": [
              "Incident neutron spectrum fission moderated to 130 eV."
            ]
          }
        ]
      },
      "method": {
        "0": [
          {
            "x4_code": "(TOF)",
            "free_txt": [
              " Time-of-flight. 216.87-m flight path."
            ]
          }
        ]
      },
      "status": {
        "0": [
          {
            "x4_code": "(APRVD)",
            "free_txt": [
              " Approved by author."
            ]
          },
          {
            "x4_code": "(TABLE)",
            "free_txt": [
              " Data received on magnetic tape, P.A. Seeger,",
              " August, 1970."
            ]
          }
        ]
      }
    }
  },
  "10055-002": {
    "reaction": {
      "0": {
        "x4_code": "(92-U-232(N,F),,SIG)",
        "0": {
          "code": [
            "92-U-232",
            [
              "N,F"
            ],
            ",,SIG"
          ],
          "type": null,
          "target": "92-U-232",
          "process": "N,F",
          "sf49": ",,SIG",
          "sf4": null,
          "sf5": null,
          "sf6": "SIG",
          "sf7": null,
          "sf8": null,
          "sf9": null
        },
        "type": null,
        "free_text": ""
      }
    },
    "extra_information": {
      "monitor": {
        "0": [
          {
            "x4_code": "(3-LI-6(N,T)2-HE-4,,SIG)",
            "free_txt": [
              " Flux relative to 6Li(n,alpha)",
              "  at 2200m/sec, assuming 1/v dependence."
            ]
          }
        ]
      }
    },
    "common": {
      "heads": [
        "EN-NRM",
        "MONIT",
        "MONIT-ERR"
      ],
      "units": [
        "EV",
        "B",
        "B"
      ],
      "data": [
        [
          0.0253
        ],
        [
          940.3
        ],
        [
          1.6
        ]
      ]
    },
    "data": {
      "heads": [
        "EN",
        "DATA",
        "ERR-T"
      ],
      "units": [
        "EV",
        "B",
        "PER-CENT"
      ],
      "data": [
        [
          40.1498,
          40.2498,
          40.3498,
          40.4498,
          40.5498,
          40.6498,
          40.7499,
          40.8499,
          40.9499,
          41.0499,
          41.1499,
          41.2499,
          41.3499,
          41.4499,
          41.5499,
          41.6499,
          41.7499,
          41.8499,
          41.9499,
          42.0499,
          42.1499,
          42.2499,
          42.3499,
          42.4499,
          42.5499,
          42.6499,
          42.7499,
          42.8499,
          42.9499,
          43.0499,
          43.1499,
          43.2499,
          43.3499,
          43.4499,
          43.5499,
          43.6499,
          43.7499,
          43.8499,
          43.9499,
          44.0499,
          44.1499,
          44.2499,
          44.3499,
          44.4499,
          44.5499,
          44.6499,
          44.7499,
          44.8499,
          44.9499,
          45.0499,
          45.1499,
          45.2499,
          45.3499,
          45.4499,
          45.5499,
          45.6499,
          45.7499,
          45.8499,
          45.9499,
          46.0499,
          46.1499,
          46.2499,
          46.3499,
          46.4499,
          46.5499,
          46.6499,
          46.7499,
          46.8499,
          46.9499,
          47.0499,
          47.1499,
          47.2499,
          47.3499,
          47.4499,
          47.5499,
          47.6499,
          47.7499,
          47.8499,
          47.9499,
          48.0499,
          48.1499,
          48.2499,
          48.3499,
          48.4499,
          48.5499,
          48.6499,
          48.7499,
          48.8499,
          48.9499,
          49.0499,
          49.1499,
          49.2499,
          49.3499,
          49.4499,
          49.5499,
          49.6499,
          49.7499,
          49.8499,
          49.9499,
          50.0499,
          50.1499,
          50.2499,
          50.3499,
          50.4499,
          50.5499,
          50.6499,
          50.7499,
          50.8499,
          50.8982,
          50.9444,
          50.9908,
          51.0372,
          51.0837,
          51.1302,
          51.1768,
          51.2235,
          51.2702,
          51.317,
          51.3638,
          51.4107,
          51.4577,
          51.5048,
          51.5519,
          51.5991,
          51.6463,
          51.6936,
          51.741,
          51.7884,
          51.8359,
          51.8835,
          51.9311,
          51.9788,
          52.0266,
          52.0744,
          52.1223,
          52.1703,
          52.2183,
          52.2664,
          52.3146,
          52.3628,
          52.4111,
          52.4594,
          52.5079,
          52.5564,
          52.6049,
          52.6536,
          52.7023,
          52.751,
          52.7999,
          52.8488,
          52.8977,
          52.9468,
          52.9959,
          53.045,
          53.0943,
          53.1436,
          53.193,
          53.2424,
          53.2919,
          53.3415,
          53.3912,
          53.4409,
          53.4907,
          53.5406,
          53.5905,
          53.6405,
          53.6906,
          53.7407,
          53.7909,
          53.8412,
          53.8916,
          53.942,
          53.9925,
          54.0431,
          54.0937,
          54.1444,
          54.1952,
          54.2461,
          54.297,
          54.348,
          54.399,
          54.4502,
          54.5014,
          54.5527,
          54.604,
          54.6555,
          54.707,
          54.7586,
          54.8102,
          54.8619,
          54.9137,
          54.9656,
          55.0175,
          55.0696,
          55.1216,
          55.1738,
          55.2261,
          55.2784,
          55.3308,
          55.3832,
          55.4358,
          55.4884,
          55.541,
          55.5938,
          55.6466,
          55.6996,
          55.7525,
          55.8056,
          55.8587,
          55.912,
          55.9653,
          56.0186,
          56.0721,
          56.1256,
          56.1792,
          56.2329,
          56.2866,
          56.3404,
          56.3943,
          56.4483,
          56.5024,
          56.5565,
          56.6107,
          56.665,
          56.7194,
          56.7739,
          56.8284,
          56.883,
          56.9377,
          56.9924,
          57.0473,
          57.1022,
          57.1572,
          57.2123,
          57.2675,
          57.3227,
          57.378,
          57.4334,
          57.4889,
          57.5445,
          57.6001,
          57.6558,
          57.7116,
          57.7675,
          57.8235,
          57.8795,
          57.9357,
          57.9919,
          58.0482,
          58.1045,
          58.161,
          58.2175,
          58.2742,
          58.3309,
          58.3877,
          58.4445,
          58.5015,
          58.5585,
          58.6157,
          58.6729,
          58.7301,
          58.7875,
          58.845,
          58.9025,
          58.9601,
          59.0179,
          59.0757,
          59.1335,
          59.1915,
          59.2496,
          59.3077,
          59.3659,
          59.4242,
          59.4826,
          59.5411,
          59.5997,
          59.6583,
          59.7171,
          59.7759,
          59.8348,
          59.8938,
          59.9529,
          60.0121,
          60.0713,
          60.1307,
          60.1901,
          60.2496,
          60.3093,
          60.369,
          60.4288,
          60.4886,
          60.5486,
          60.6087,
          60.6688,
          60.7291,
          60.7894,
          60.8498,
          60.9103,
          60.9709,
          61.0316,
          61.0924,
          61.1533,
          61.2142,
          61.2753,
          61.3364,
          61.3977,
          61.459,
          61.5204,
          61.5819,
          61.6435,
          61.7052,
          61.767,
          61.8289,
          61.8909,
          61.953,
          62.0151,
          62.0774,
          62.1397,
          62.2022,
          62.2647,
          62.3274,
          62.3901,
          62.4529,
          62.5158,
          62.5788,
          62.642,
          62.7052,
          62.7685,
          62.8319,
          62.8953,
          62.9589,
          63.0226,
          63.0864,
          63.1503,
          63.2143,
          63.2783,
          63.3425,
          63.4068,
          63.4711,
          63.5356,
          63.6002,
          63.6648,
          63.7296,
          63.7944,
          63.8594,
          63.9245,
          63.9896,
          64.0549,
          64.1202,
          64.1857,
          64.2512,
          64.3169,
          64.3827,
          64.4485,
          64.5145,
          64.5805,
          64.6467,
          64.713,
          64.7793,
          64.8458,
          64.9124,
          64.9791,
          65.0458,
          65.1127,
          65.1797,
          65.2468,
          65.314,
          65.3813,
          65.4487,
          65.5162,
          65.5838,
          65.6515,
          65.7193,
          65.7872,
          65.8553,
          65.9234,
          65.9916,
          66.06,
          66.1284,
          66.197,
          66.2657,
          66.3344,
          66.4033,
          66.4723,
          66.5414,
          66.6106,
          66.6799,
          66.7493,
          66.8188,
          66.8885,
          66.9582,
          67.0281,
          67.098,
          67.1681,
          67.2383,
          67.3086,
          67.379,
          67.4495,
          67.5201,
          67.5909,
          67.6617,
          67.7327,
          67.8037,
          67.8749,
          67.9462,
          68.0176,
          68.0891,
          68.1608,
          68.2325,
          68.3044,
          68.3763,
          68.4484,
          68.5206,
          68.5929,
          68.6654,
          68.7379,
          68.8106,
          68.8834,
          68.9562,
          69.0292,
          69.1024,
          69.1756,
          69.249,
          69.3224,
          69.396,
          69.4697,
          69.5435,
          69.6175,
          69.6915,
          69.7657,
          69.84,
          69.9144,
          69.989,
          70.0636,
          70.1384,
          70.2133,
          70.2883,
          70.3634,
          70.4387,
          70.5141,
          70.5896,
          70.6652,
          70.7409,
          70.8168,
          70.8928,
          70.9689,
          71.0451,
          71.1214,
          71.1979,
          71.2745,
          71.3512,
          71.4281,
          71.505,
          71.5821,
          71.6593,
          71.7367,
          71.8142,
          71.8918,
          71.9695,
          72.0473,
          72.1253,
          72.2034,
          72.2816,
          72.36,
          72.4385,
          72.5171,
          72.5958,
          72.6747,
          72.7537,
          72.8328,
          72.912,
          72.9914,
          73.0709,
          73.1506,
          73.2303,
          73.3102,
          73.3903,
          73.4704,
          73.5507,
          73.6312,
          73.7117,
          73.7924,
          73.8732,
          73.9542,
          74.0353,
          74.1165,
          74.1979,
          74.2794,
          74.361,
          74.4427,
          74.5246,
          74.6067,
          74.6888,
          74.7711,
          74.8536,
          74.9362,
          75.0189,
          75.1017,
          75.1847,
          75.2678,
          75.3511,
          75.4345,
          75.518,
          75.6017,
          75.6855,
          75.7695,
          75.8536,
          75.9378,
          76.0222,
          76.1067,
          76.1914,
          76.2762,
          76.3611,
          76.4462,
          76.5314,
          76.6168,
          76.7023,
          76.788,
          76.8738,
          76.9597,
          77.0458,
          77.132,
          77.2184,
          77.3049,
          77.3916,
          77.4784,
          77.5654,
          77.6525,
          77.7397,
          77.8271,
          77.9147,
          78.0024,
          78.0902,
          78.1782,
          78.2664,
          78.3547,
          78.4431,
          78.5317,
          78.6204,
          78.7093,
          78.7984,
          78.8876,
          78.9769,
          79.0664,
          79.156,
          79.2458,
          79.3358,
          79.4259,
          79.5162,
          79.6066,
          79.6971,
          79.7879,
          79.8787,
          79.9698,
          80.061,
          80.1523,
          80.2438,
          80.3355,
          80.4273,
          80.5193,
          80.6114,
          80.7037,
          80.7961,
          80.8888,
          80.9815,
          81.0745,
          81.1675,
          81.2608,
          81.3542,
          81.4478,
          81.5415,
          81.6354,
          81.7294,
          81.8237,
          81.918,
          82.0126,
          82.1073,
          82.2022,
          82.2972,
          82.3924,
          82.4878,
          82.5833,
          82.679,
          82.7749,
          82.8709,
          82.9671,
          83.0635,
          83.16,
          83.2567,
          83.3536,
          83.4507,
          83.5479,
          83.6453,
          83.7428,
          83.8405,
          83.9384,
          84.0365,
          84.1347,
          84.2332,
          84.3317,
          84.4305,
          84.5294,
          84.6285,
          84.7278,
          84.8273,
          84.9269,
          85.0267,
          85.1267,
          85.2269,
          85.3272,
          85.4277,
          85.5284,
          85.6293,
          85.7303,
          85.8315,
          85.933,
          86.0345,
          86.1363,
          86.2383,
          86.3404,
          86.4427,
          86.5452,
          86.6479,
          86.7507,
          86.8538,
          86.957,
          87.0604,
          87.164,
          87.2678,
          87.3717,
          87.4759,
          87.5802,
          87.6847,
          87.7894,
          87.8943,
          87.9994,
          88.1047,
          88.2102,
          88.3158,
          88.4217,
          88.5277,
          88.6339,
          88.7403,
          88.847,
          88.9538,
          89.0608,
          89.1679,
          89.2753,
          89.3829,
          89.4907,
          89.5986,
          89.7068,
          89.8151,
          89.9237,
          90.0324,
          90.1414,
          90.2505,
          90.3599,
          90.4694,
          90.5792,
          90.6891,
          90.7992,
          90.9096,
          91.0201,
          91.1309,
          91.2418,
          91.353,
          91.4643,
          91.5759,
          91.6876,
          91.7996,
          91.9118,
          92.0242,
          92.1368,
          92.2495,
          92.3625,
          92.4757,
          92.5892,
          92.7028,
          92.8166,
          92.9307,
          93.0449,
          93.1594,
          93.2741,
          93.3889,
          93.504,
          93.6194,
          93.7349,
          93.8506,
          93.9666,
          94.0827,
          94.1991,
          94.3157,
          94.4325,
          94.5496,
          94.6668,
          94.7843,
          94.902,
          95.0199,
          95.138,
          95.2564,
          95.375,
          95.4938,
          95.6128,
          95.732,
          95.8515,
          95.9712,
          96.0911,
          96.2112,
          96.3316,
          96.4522,
          96.573,
          96.694,
          96.8153,
          96.9368,
          97.0585,
          97.1805,
          97.3026,
          97.4251,
          97.5477,
          97.6706,
          97.7937,
          97.917,
          98.0406,
          98.1644,
          98.2885,
          98.4128,
          98.5373,
          98.662,
          98.787,
          98.9122,
          99.0377,
          99.1634,
          99.2894,
          99.4155,
          99.542,
          99.6686,
          99.7956,
          99.9227,
          100.05,
          100.178,
          100.306,
          100.434,
          100.562,
          100.691,
          100.82,
          100.949,
          101.078,
          101.208,
          101.338,
          101.468,
          101.598,
          101.729,
          101.86,
          101.991,
          102.122,
          102.254,
          102.386,
          102.518,
          102.65,
          102.783,
          102.916,
          103.049,
          103.182,
          103.316,
          103.45,
          103.584,
          103.719,
          103.853,
          103.988,
          104.124,
          104.259,
          104.395,
          104.531,
          104.667,
          104.804,
          104.941,
          105.078,
          105.353,
          105.491,
          105.629,
          105.906,
          106.045,
          106.184,
          106.324,
          106.464,
          106.604,
          106.744,
          106.885,
          107.026,
          107.167,
          107.309,
          107.451,
          107.593,
          107.735,
          107.878,
          108.02,
          108.164,
          108.307,
          108.451,
          108.595,
          108.739,
          108.884,
          109.029,
          109.174,
          109.32,
          109.465,
          109.612,
          109.758,
          109.905,
          110.052,
          110.199,
          110.346,
          110.494,
          110.642,
          110.791,
          110.94,
          111.089,
          111.238,
          111.388,
          111.538,
          111.688,
          111.838,
          111.989,
          112.14,
          112.292,
          112.444,
          112.596,
          112.748,
          112.901,
          113.054,
          113.207,
          113.361,
          113.515,
          113.669,
          113.824,
          113.979,
          114.134,
          114.289,
          114.445,
          114.601,
          114.758,
          114.915,
          115.072,
          115.229,
          115.387,
          115.545,
          115.704,
          115.862,
          116.022,
          116.181,
          116.341,
          116.501,
          116.661,
          116.822,
          116.983,
          117.144,
          117.306,
          117.468,
          117.631,
          117.793,
          117.956,
          118.12,
          118.284,
          118.448,
          118.612,
          118.777,
          118.942,
          119.108,
          119.273,
          119.44,
          119.606,
          119.773,
          119.94,
          120.108,
          120.276,
          120.444,
          120.613,
          120.782,
          120.951,
          121.121,
          121.291,
          121.461,
          121.632,
          121.803,
          121.974,
          122.146,
          122.318,
          122.491,
          122.664,
          122.837,
          123.011,
          123.185,
          123.359,
          123.534,
          123.709,
          123.885,
          124.061,
          124.237,
          124.414,
          124.591,
          124.768,
          124.946,
          125.124,
          125.303,
          125.482,
          125.661,
          125.841,
          126.021,
          126.201,
          126.382,
          126.563,
          126.745,
          126.927,
          127.11,
          127.292,
          127.476,
          127.659,
          127.843,
          128.028,
          128.212,
          128.398,
          128.583,
          128.769,
          128.956,
          129.143,
          129.33,
          129.517,
          129.705,
          129.894,
          130.083,
          130.272,
          130.462,
          130.652,
          130.842,
          131.033,
          131.225,
          131.416,
          131.609,
          131.801,
          131.994,
          132.188,
          132.382,
          132.576,
          132.771,
          132.966,
          133.162,
          133.358,
          133.554,
          133.751,
          133.948,
          134.146,
          134.344,
          134.543,
          134.742,
          134.942,
          135.142,
          135.342,
          135.543,
          135.744,
          135.946,
          136.148,
          136.351,
          136.554,
          136.758,
          136.962,
          137.166,
          137.371,
          137.577,
          137.782,
          137.989,
          138.196,
          138.403,
          138.611,
          138.819,
          139.028,
          139.237,
          139.446,
          139.656,
          139.867,
          140.078,
          140.29,
          140.502,
          140.714,
          140.927,
          141.14,
          141.354,
          141.569,
          141.784,
          141.999,
          142.215,
          142.431,
          142.648,
          142.866,
          143.084,
          143.302,
          143.521,
          143.74,
          143.96,
          144.18,
          144.401,
          144.623,
          144.845,
          145.067,
          145.29,
          145.513,
          145.737,
          145.962,
          146.187,
          146.412,
          146.638,
          146.865,
          147.092,
          147.32,
          147.548,
          147.777,
          148.006,
          148.236,
          148.466,
          148.697,
          148.928,
          149.16,
          149.392,
          149.625,
          149.859,
          150.093,
          150.328,
          150.563,
          150.798,
          151.035,
          151.272,
          151.509,
          151.747,
          151.985,
          152.225,
          152.464,
          152.704,
          152.945,
          153.187,
          153.428,
          153.671,
          153.914,
          154.158,
          154.402,
          154.647,
          154.892,
          155.138,
          155.385,
          155.632,
          155.88,
          156.128,
          156.377,
          156.626,
          156.876,
          157.127,
          157.378,
          157.63,
          157.883,
          158.136,
          158.39,
          158.644,
          158.899,
          159.155,
          159.411,
          159.668,
          159.925,
          160.183,
          160.442,
          160.701,
          160.961,
          161.222,
          161.483,
          161.745,
          162.007,
          162.271,
          162.534,
          162.799,
          163.064,
          163.33,
          163.596,
          163.863,
          164.131,
          164.399,
          164.668,
          164.938,
          165.208,
          165.479,
          165.75,
          166.023,
          166.296,
          166.569,
          166.844,
          167.119,
          167.394,
          167.671,
          167.948,
          168.226,
          168.504,
          168.783,
          169.063,
          169.344,
          169.625,
          169.907,
          170.189,
          170.473,
          170.757,
          171.041,
          171.327,
          171.613,
          171.9,
          172.188,
          172.476,
          172.765,
          173.055,
          173.345,
          173.637,
          173.929,
          174.221,
          174.515,
          174.809,
          175.104,
          175.4,
          175.696,
          175.993,
          176.291,
          176.59,
          176.889,
          177.19,
          177.491,
          177.792,
          178.095,
          178.398,
          178.702,
          179.007,
          179.313,
          179.619,
          179.926,
          180.234,
          180.543,
          180.853,
          181.163,
          181.474,
          181.786,
          182.099,
          182.413,
          182.727,
          183.042,
          183.359,
          183.675,
          183.993,
          184.312,
          184.631,
          184.951,
          185.272,
          185.594,
          185.917,
          186.24,
          186.565,
          186.89,
          187.216,
          187.543,
          187.871,
          188.199,
          188.529,
          188.859,
          189.19,
          189.522,
          189.855,
          190.189,
          190.524,
          190.86,
          191.196,
          191.534,
          191.872,
          192.211,
          192.551,
          192.892,
          193.234,
          193.577,
          193.921,
          194.265,
          194.611,
          194.958,
          195.305,
          195.653,
          196.003,
          196.353,
          196.704,
          197.056,
          197.409,
          197.763,
          198.118,
          198.474,
          198.831,
          199.189,
          199.548,
          199.907,
          200.268,
          200.63,
          200.992,
          201.356,
          201.721,
          202.087,
          202.453,
          202.821,
          203.19,
          203.559,
          203.93,
          204.302,
          204.674,
          205.048,
          205.423,
          205.799,
          206.175,
          206.553,
          206.932,
          207.312,
          207.693,
          208.075,
          208.458,
          208.843,
          209.228,
          209.614,
          210.001,
          210.39,
          210.779,
          211.17,
          211.562,
          211.954,
          212.348,
          212.743,
          213.139,
          213.537,
          213.935,
          214.334,
          214.735,
          215.136,
          215.539,
          215.943,
          216.348,
          216.754,
          217.162,
          217.57,
          217.98,
          218.391,
          218.803,
          219.216,
          219.63,
          220.045,
          220.462,
          220.88,
          221.299,
          221.719,
          222.141,
          222.563,
          222.987,
          223.412,
          223.838,
          224.266,
          224.695,
          225.125,
          225.556,
          225.988,
          226.422,
          226.857,
          227.293,
          227.73,
          228.169,
          228.609,
          229.05,
          229.493,
          229.937,
          230.382,
          230.828,
          231.276,
          231.725,
          232.175,
          232.627,
          233.079,
          233.534,
          233.989,
          234.446,
          234.904,
          235.364,
          235.825,
          236.287,
          236.751,
          237.216,
          237.682,
          238.15,
          238.619,
          239.09,
          239.562,
          240.035,
          240.51,
          240.986,
          241.464,
          241.943,
          242.423,
          242.905,
          243.388,
          243.873,
          244.359,
          244.847,
          245.336,
          245.826,
          246.319,
          246.812,
          247.307,
          247.804,
          248.302,
          248.801,
          249.302,
          249.805,
          250.309,
          250.814,
          251.321,
          251.83,
          252.34,
          252.852,
          253.365,
          253.88,
          254.397,
          254.915,
          255.434,
          255.955,
          256.478,
          257.003,
          257.529,
          258.056,
          258.585,
          259.116,
          259.649,
          260.183,
          260.719,
          261.256,
          261.795,
          262.336,
          262.879,
          263.423,
          263.969,
          264.516,
          265.066,
          265.616,
          266.169,
          266.724,
          267.28,
          267.838,
          268.397,
          268.959,
          269.522,
          270.087,
          270.654,
          271.222,
          271.792,
          272.364,
          272.938,
          273.514,
          274.092,
          274.671,
          275.252,
          275.835,
          276.42,
          277.007,
          277.596,
          278.186,
          278.778,
          279.373,
          279.969,
          280.567,
          281.167,
          281.769,
          282.373,
          282.979,
          283.587,
          284.196,
          284.808,
          285.422,
          286.038,
          286.655,
          287.275,
          287.897,
          288.52,
          289.146,
          289.774,
          290.404,
          291.036,
          291.67,
          292.306,
          292.944,
          293.584,
          294.226,
          294.871,
          295.517,
          296.166,
          296.817,
          297.47,
          298.125,
          298.782,
          299.442,
          300.103,
          300.767,
          301.433,
          302.101,
          302.772,
          303.445,
          304.12,
          304.797,
          305.476,
          306.158,
          306.842,
          307.529,
          308.217,
          308.908,
          309.601,
          310.297,
          310.995,
          311.695,
          312.398,
          313.103,
          313.811,
          314.521,
          315.233,
          315.948,
          316.665,
          317.384,
          318.106,
          318.831,
          319.558,
          320.287,
          321.019,
          321.754,
          322.491,
          323.23,
          323.973,
          324.717,
          325.464,
          326.214,
          326.967,
          327.722,
          328.479,
          329.24,
          330.002,
          330.768,
          331.536,
          332.307,
          333.081,
          333.857,
          334.636,
          335.418,
          336.202,
          336.99,
          337.78,
          338.573,
          339.368,
          340.167,
          340.968,
          341.772,
          342.579,
          343.389,
          344.201,
          345.017,
          345.835,
          346.657,
          347.481,
          348.308,
          349.138,
          349.971,
          350.808,
          351.647,
          352.489,
          353.334,
          354.182,
          355.034,
          355.888,
          356.746,
          357.606,
          358.47,
          359.337,
          360.207,
          361.08,
          361.956,
          362.836,
          363.718,
          364.604,
          365.493,
          366.386,
          367.282,
          368.181,
          369.083,
          369.989,
          370.897,
          371.81,
          372.726,
          373.645,
          374.567,
          375.493,
          376.422,
          377.355,
          378.291,
          379.231,
          380.174,
          381.121,
          382.072,
          383.025,
          383.983,
          384.944,
          385.909,
          386.877,
          387.849,
          388.825,
          389.804,
          390.787,
          391.774,
          392.764,
          393.758,
          394.756,
          395.758,
          396.764,
          397.773,
          398.787,
          399.804,
          400.825,
          401.85,
          402.879,
          403.912,
          404.949,
          405.99,
          407.035,
          408.084,
          409.137,
          410.194,
          411.255,
          412.321,
          413.39,
          414.464,
          415.542,
          416.624,
          417.71,
          418.8,
          419.895,
          420.994,
          422.098,
          423.206,
          424.318,
          425.434,
          426.555,
          427.681,
          428.811,
          429.945,
          431.084,
          432.227,
          433.375,
          434.528,
          435.685,
          436.846,
          438.013,
          439.184,
          440.36,
          441.54,
          442.725,
          443.916,
          445.11,
          446.31,
          447.515,
          448.724,
          449.938,
          451.158,
          452.382,
          453.611,
          454.845,
          456.085,
          457.329,
          458.578,
          459.833,
          461.093,
          462.358,
          463.628,
          464.903,
          466.184,
          467.47,
          468.761,
          470.058,
          471.36,
          472.667,
          473.98,
          475.299,
          476.622,
          477.952,
          479.287,
          480.627,
          481.974,
          483.326,
          484.683,
          486.047,
          487.416,
          488.791,
          490.171,
          491.558,
          492.95,
          494.349,
          495.753,
          497.163,
          498.58,
          500.002,
          501.431,
          502.865,
          504.306,
          505.753,
          507.206,
          508.666,
          510.132,
          511.604,
          513.083,
          514.568,
          516.059,
          517.557,
          519.061,
          520.572,
          522.09,
          523.614,
          525.145,
          526.683,
          528.228,
          529.779,
          531.337,
          532.902,
          534.474,
          536.053,
          537.639,
          539.232,
          540.832,
          542.439,
          544.053,
          545.675,
          547.304,
          548.94,
          550.583,
          552.234,
          553.893,
          555.559,
          557.232,
          558.913,
          560.601,
          562.298,
          564.001,
          565.713,
          567.433,
          569.16,
          570.895,
          572.638,
          574.389,
          576.149,
          577.916,
          579.691,
          581.475,
          583.267,
          585.067,
          586.876,
          588.693,
          590.518,
          592.352,
          594.195,
          596.046,
          597.905,
          599.774,
          601.651,
          603.537,
          605.432,
          607.336,
          609.249,
          611.171,
          613.102,
          615.042,
          616.991,
          618.95,
          620.918,
          622.896,
          624.883,
          626.879,
          628.885,
          630.901,
          632.926,
          634.961,
          637.006,
          639.061,
          641.126,
          643.201,
          645.286,
          647.381,
          649.486,
          651.602,
          653.728,
          655.864,
          658.011,
          660.169,
          662.337,
          664.515,
          666.705,
          668.905,
          671.117,
          673.339,
          675.572,
          677.817,
          680.073,
          682.34,
          684.618,
          686.908,
          689.209,
          691.522,
          693.846,
          696.183,
          698.531,
          700.891,
          703.263,
          705.647,
          708.043,
          710.451,
          712.872,
          715.305,
          717.751,
          720.209,
          722.68,
          725.163,
          727.659,
          730.169,
          732.691,
          735.226,
          737.775,
          740.337,
          742.912,
          745.501,
          748.103,
          750.719,
          753.348,
          755.992,
          758.649,
          761.321,
          764.006,
          766.706,
          769.42,
          772.149,
          774.892,
          777.65,
          780.422,
          783.21,
          786.012,
          788.829,
          791.662,
          794.51,
          797.373,
          800.252,
          803.146,
          806.056,
          808.982,
          811.924,
          814.882,
          817.857,
          820.847,
          823.854,
          826.878,
          829.918,
          832.975,
          836.049,
          839.14,
          842.248,
          845.374,
          848.516,
          851.677,
          854.855,
          858.051,
          861.265,
          864.497,
          867.747,
          871.016,
          874.303,
          877.609,
          880.933,
          884.277,
          887.639,
          891.021,
          894.422,
          897.843,
          901.283,
          904.743,
          908.223,
          911.724,
          915.244,
          918.785,
          922.347,
          925.929,
          929.532,
          933.156,
          936.802,
          940.469,
          944.157,
          947.868,
          951.6,
          955.354,
          959.13,
          962.929,
          966.751,
          970.595,
          974.463,
          978.353,
          982.267,
          986.204,
          990.165,
          994.15,
          998.16
        ],
        [
          -5.9735,
          -6.3959,
          -4.7655,
          -4.3031,
          -5.2254,
          -4.1583,
          -6.8789,
          -5.5802,
          -3.6746,
          -2.8862,
          -0.36381,
          -0.42695,
          -1.5827,
          -0.60435,
          0.9928,
          2.3106,
          5.1033,
          6.53,
          12.651,
          22.17,
          27.294,
          52.795,
          77.004,
          117.63,
          113.97,
          135.13,
          197.36,
          346.56,
          559.16,
          611.0,
          404.05,
          150.84,
          44.172,
          9.8774,
          0.74601,
          -0.1599,
          -0.72276,
          -2.0403,
          -2.015,
          -2.5891,
          -1.7252,
          -2.4892,
          -3.9735,
          -4.8925,
          -5.4839,
          -4.9367,
          -4.1369,
          -4.0851,
          -4.0417,
          -3.625,
          -3.9028,
          -3.8275,
          -2.4966,
          -1.9268,
          -2.9839,
          -2.6101,
          -2.41,
          -2.6323,
          -1.6783,
          -1.9574,
          -2.7563,
          -0.96055,
          -0.20484,
          0.7518,
          0.17341,
          0.60094,
          1.5848,
          2.7744,
          4.9304,
          4.8025,
          9.9272,
          13.163,
          33.98,
          55.312,
          70.93,
          43.27,
          16.197,
          6.4481,
          1.9273,
          1.1124,
          -1.2391,
          -0.72149,
          0.14788,
          -1.0549,
          -2.0931,
          -0.92517,
          0.073226,
          -1.523,
          -2.2473,
          -2.4559,
          -1.7324,
          -1.6811,
          -2.3327,
          -1.5503,
          -1.402,
          -2.5457,
          -2.4925,
          -1.9281,
          -1.5833,
          -1.16,
          -1.3467,
          -1.2231,
          -1.2184,
          -1.0283,
          -1.0205,
          -1.0459,
          -0.60236,
          -0.17749,
          0.7132,
          0.2727,
          0.73561,
          0.15902,
          0.55389,
          0.46378,
          0.99888,
          1.0078,
          0.7791,
          0.91268,
          0.75859,
          1.204,
          1.6604,
          3.2448,
          1.7896,
          3.0687,
          1.5284,
          1.5027,
          2.0859,
          4.399,
          3.6851,
          4.8341,
          6.0696,
          7.217,
          15.238,
          26.15,
          49.278,
          80.681,
          108.31,
          120.62,
          130.11,
          133.3,
          122.98,
          108.73,
          80.906,
          51.274,
          33.839,
          20.357,
          11.571,
          7.3453,
          6.7633,
          3.9004,
          3.08,
          2.8318,
          3.3958,
          2.0034,
          1.5396,
          1.9062,
          1.9519,
          1.148,
          0.58291,
          1.2628,
          1.0165,
          0.99246,
          1.5656,
          1.202,
          0.98773,
          0.15588,
          -0.0036766,
          0.44018,
          0.17712,
          0.8401,
          0.30289,
          0.58533,
          0.082469,
          0.42412,
          0.22742,
          0.52431,
          0.62223,
          0.8644,
          1.8106,
          1.1731,
          0.41819,
          0.36048,
          0.66411,
          0.44789,
          0.40563,
          0.53343,
          0.75805,
          1.5569,
          0.58787,
          0.54721,
          0.22488,
          0.12697,
          0.27001,
          0.42444,
          0.75551,
          0.58654,
          0.70386,
          0.64278,
          -0.061525,
          -0.34734,
          0.28713,
          0.52661,
          0.32102,
          0.064363,
          -0.069049,
          0.26589,
          0.59971,
          1.1435,
          0.99705,
          0.87126,
          0.9996,
          0.29152,
          0.28056,
          0.30255,
          0.58908,
          0.22267,
          0.37923,
          -0.098472,
          0.28185,
          0.26267,
          0.43071,
          0.12202,
          0.53587,
          0.271,
          0.15053,
          0.2074,
          0.37586,
          0.65285,
          0.84245,
          0.51566,
          0.46288,
          0.6012,
          0.13181,
          0.058354,
          0.13265,
          0.082652,
          0.44092,
          0.83692,
          0.9662,
          0.92864,
          0.6088,
          0.6203,
          0.99317,
          0.776,
          0.81283,
          0.64791,
          0.77449,
          0.50042,
          0.80031,
          0.86002,
          0.46845,
          0.56393,
          0.6202,
          0.94468,
          0.56263,
          0.42242,
          0.33497,
          0.48269,
          0.41564,
          0.99808,
          0.49091,
          0.4704,
          0.67411,
          1.089,
          1.0507,
          1.1075,
          1.4576,
          2.402,
          2.5633,
          3.4525,
          3.2681,
          4.011,
          2.8356,
          1.6207,
          0.77896,
          0.34686,
          0.42392,
          0.16293,
          0.21841,
          0.29074,
          0.73638,
          0.50638,
          0.027677,
          0.1081,
          0.092786,
          0.12893,
          0.47638,
          0.27359,
          0.37741,
          0.19277,
          0.11964,
          0.19887,
          0.29075,
          0.37788,
          0.21244,
          -0.075821,
          0.12068,
          0.25805,
          0.25177,
          0.32795,
          0.33905,
          0.28932,
          0.46487,
          0.90201,
          0.77396,
          0.63192,
          0.64632,
          0.93428,
          0.62862,
          1.3095,
          2.311,
          0.98755,
          0.68341,
          0.74689,
          0.36414,
          0.13988,
          0.46347,
          0.44599,
          0.42335,
          0.49224,
          0.42245,
          0.6187,
          0.26282,
          0.23148,
          0.4615,
          0.57639,
          0.8263,
          0.62134,
          0.62168,
          0.49239,
          0.55946,
          1.0121,
          0.84732,
          0.46881,
          0.38058,
          0.42712,
          0.50027,
          0.60413,
          0.8281,
          0.85503,
          1.0713,
          0.96436,
          1.0782,
          1.0638,
          1.2906,
          1.1014,
          1.29,
          1.8322,
          1.6424,
          1.032,
          0.6671,
          1.1433,
          0.8945,
          0.84094,
          0.82211,
          0.97448,
          0.69944,
          0.62208,
          0.64911,
          0.62614,
          0.65768,
          0.80379,
          0.75558,
          0.73753,
          0.88387,
          0.83479,
          0.93713,
          0.8988,
          0.90178,
          0.96347,
          0.95894,
          1.0067,
          0.69148,
          0.7095,
          0.95953,
          1.038,
          1.3476,
          1.0185,
          1.1201,
          1.228,
          1.0231,
          1.3698,
          1.1748,
          1.5462,
          1.8879,
          1.3228,
          1.1297,
          1.2306,
          1.2423,
          1.3222,
          1.0449,
          1.0643,
          0.95841,
          1.5554,
          1.0965,
          1.1204,
          1.2871,
          1.5228,
          2.0279,
          2.6934,
          2.0037,
          2.0339,
          2.0587,
          2.4067,
          2.2006,
          1.9367,
          1.7942,
          2.1324,
          2.1449,
          2.8468,
          3.0056,
          2.4531,
          2.2258,
          2.7236,
          2.5419,
          3.062,
          3.1177,
          3.1809,
          3.2437,
          3.3959,
          3.9451,
          3.7416,
          3.8964,
          3.6732,
          3.0193,
          2.7978,
          3.434,
          3.6731,
          3.9649,
          4.3195,
          3.994,
          3.5848,
          3.0706,
          3.5731,
          4.2998,
          4.6334,
          5.1232,
          5.2138,
          4.6452,
          4.8295,
          4.4066,
          4.5648,
          5.2374,
          5.3638,
          4.8774,
          4.762,
          5.0686,
          5.1833,
          5.5904,
          5.2062,
          5.1156,
          5.3123,
          4.701,
          4.1999,
          4.657,
          5.2285,
          4.8439,
          4.497,
          4.8731,
          5.9008,
          9.5572,
          14.379,
          19.129,
          25.395,
          31.406,
          36.625,
          44.05,
          54.333,
          62.522,
          67.42,
          74.859,
          85.708,
          99.828,
          113.34,
          125.71,
          141.96,
          165.85,
          192.82,
          229.51,
          276.4,
          334.91,
          426.28,
          518.08,
          638.16,
          770.13,
          878.0,
          946.79,
          972.64,
          959.0,
          901.06,
          794.44,
          628.23,
          476.28,
          367.11,
          287.03,
          214.75,
          168.37,
          133.21,
          105.57,
          89.887,
          77.028,
          62.528,
          50.917,
          43.321,
          38.406,
          33.231,
          28.603,
          25.689,
          23.019,
          19.889,
          17.688,
          16.96,
          15.647,
          13.45,
          10.872,
          10.431,
          10.273,
          8.9588,
          7.9795,
          7.6859,
          7.4423,
          6.428,
          6.0911,
          6.4538,
          6.4631,
          4.8981,
          4.5034,
          4.1416,
          3.8621,
          3.4756,
          3.1454,
          3.2255,
          2.6604,
          2.2926,
          1.9694,
          1.8311,
          2.1398,
          1.7105,
          1.4627,
          1.3291,
          1.3777,
          1.5363,
          1.5762,
          1.3573,
          1.0258,
          1.0199,
          1.328,
          1.1152,
          1.1416,
          1.0342,
          0.80278,
          0.90002,
          0.67317,
          0.80416,
          0.63143,
          0.57858,
          0.30066,
          0.25304,
          0.27766,
          0.41474,
          0.29194,
          0.40162,
          0.28704,
          0.31684,
          0.36105,
          0.35421,
          0.67857,
          0.56967,
          1.0479,
          1.4364,
          1.5349,
          1.3138,
          0.83824,
          0.57409,
          0.27611,
          0.23614,
          0.23362,
          0.28511,
          0.33793,
          0.48728,
          0.39659,
          0.40479,
          0.40839,
          0.38655,
          0.44129,
          0.18626,
          0.14058,
          0.12264,
          0.053417,
          -0.024492,
          -0.055729,
          -0.0095076,
          -0.041156,
          -0.041884,
          -0.027372,
          -0.056544,
          -0.048438,
          -0.032923,
          0.0062232,
          -0.0047078,
          0.0064656,
          0.08,
          0.043529,
          0.024409,
          0.048689,
          -0.0046851,
          0.011149,
          0.040378,
          0.035007,
          0.013844,
          0.03694,
          0.0034266,
          7.7862e-05,
          -0.043362,
          -0.027672,
          -0.1181,
          -0.044061,
          -0.01262,
          -0.022887,
          -0.054831,
          -0.060284,
          -0.055777,
          -0.052323,
          -0.043391,
          -0.05549,
          -0.036626,
          0.0058389,
          -0.027274,
          -0.03814,
          -0.033511,
          -0.070542,
          -0.065474,
          -0.084604,
          -0.06781,
          -0.086505,
          -0.076534,
          -0.038549,
          -0.063477,
          -0.046172,
          0.00093576,
          -0.0078515,
          0.018336,
          0.082239,
          0.049347,
          0.073339,
          0.060685,
          0.056601,
          0.0024905,
          -0.0017723,
          0.027738,
          0.031534,
          0.10391,
          0.12823,
          0.13559,
          0.18347,
          0.29636,
          0.47662,
          0.52323,
          0.57042,
          0.55736,
          0.45623,
          0.33976,
          0.21184,
          0.10915,
          0.12887,
          0.072115,
          0.11874,
          0.24147,
          0.44592,
          0.67966,
          0.75481,
          0.53094,
          0.33353,
          0.22087,
          0.18341,
          0.046458,
          0.010733,
          0.042293,
          0.073595,
          0.061411,
          0.064382,
          0.11004,
          0.09266,
          0.091168,
          0.13633,
          0.11441,
          0.20327,
          0.18204,
          0.17121,
          0.12467,
          0.12502,
          0.061277,
          0.045767,
          0.088812,
          0.05846,
          0.055875,
          0.095803,
          0.08956,
          0.1306,
          0.17332,
          0.16164,
          0.1538,
          0.17636,
          0.18823,
          0.29064,
          0.23121,
          0.26979,
          0.33924,
          0.37575,
          0.32194,
          0.24584,
          0.2294,
          0.23323,
          0.21068,
          0.30797,
          0.23376,
          0.26987,
          0.35431,
          0.44639,
          0.54407,
          0.72673,
          0.83232,
          0.69118,
          0.5518,
          0.561,
          0.59368,
          0.64324,
          0.803,
          0.70109,
          0.69463,
          0.69162,
          0.75352,
          0.86372,
          0.9969,
          1.0282,
          0.96232,
          1.0458,
          0.94742,
          0.98792,
          1.0617,
          1.0955,
          1.2787,
          1.2809,
          1.5298,
          1.7307,
          1.7984,
          1.9555,
          2.2393,
          2.3291,
          2.5076,
          3.0735,
          3.9852,
          5.0374,
          7.0241,
          10.165,
          16.339,
          27.25,
          45.289,
          71.193,
          89.587,
          93.777,
          84.762,
          63.59,
          33.33,
          10.853,
          4.5311,
          2.4368,
          1.3897,
          1.2073,
          1.2463,
          1.3104,
          1.4272,
          1.5742,
          2.0954,
          2.9626,
          3.797,
          4.4443,
          6.1677,
          16.735,
          31.518,
          61.223,
          174.34,
          236.66,
          253.17,
          212.12,
          138.32,
          70.085,
          30.756,
          16.517,
          18.447,
          36.74,
          69.829,
          106.41,
          130.52,
          124.5,
          95.454,
          58.328,
          25.98,
          11.134,
          6.1101,
          3.9583,
          2.9638,
          2.3298,
          1.9739,
          1.7808,
          1.8034,
          1.7239,
          1.527,
          1.4277,
          1.434,
          1.4082,
          1.3237,
          1.2975,
          1.5181,
          1.8629,
          2.0602,
          2.0619,
          1.9802,
          2.0597,
          2.5796,
          3.9165,
          7.0557,
          13.782,
          26.176,
          48.018,
          79.603,
          110.07,
          127.27,
          121.61,
          88.769,
          47.403,
          20.256,
          8.1839,
          3.95,
          2.2948,
          1.6139,
          1.4836,
          1.2553,
          1.0433,
          0.90694,
          0.81749,
          0.76754,
          0.70365,
          0.67029,
          0.61209,
          0.54625,
          0.51205,
          0.42927,
          0.45,
          0.42924,
          0.43121,
          0.47024,
          0.42297,
          0.42508,
          0.54525,
          0.47875,
          0.57541,
          0.72303,
          0.91282,
          0.97866,
          1.1309,
          1.1419,
          0.98437,
          0.8598,
          0.82512,
          0.75822,
          0.78389,
          0.71368,
          0.77963,
          0.81824,
          0.86466,
          0.97542,
          1.1004,
          1.1446,
          1.1628,
          1.3086,
          1.2973,
          1.4416,
          1.4785,
          1.4837,
          1.6214,
          1.7504,
          1.8188,
          2.0043,
          2.0224,
          2.3026,
          2.4064,
          2.9247,
          3.1907,
          3.2628,
          3.6167,
          4.6954,
          6.5749,
          10.107,
          16.568,
          26.757,
          42.209,
          62.671,
          77.556,
          75.817,
          57.757,
          33.778,
          16.833,
          10.318,
          8.7353,
          8.9717,
          10.061,
          11.859,
          14.016,
          16.429,
          20.504,
          26.25,
          34.855,
          52.43,
          84.611,
          134.92,
          207.26,
          319.87,
          443.34,
          485.8,
          449.89,
          341.84,
          216.47,
          115.13,
          52.331,
          27.153,
          15.232,
          9.0857,
          5.9766,
          4.2874,
          3.3786,
          3.1721,
          4.5095,
          9.7286,
          20.927,
          35.231,
          46.529,
          53.023,
          51.593,
          39.402,
          22.841,
          10.834,
          6.0847,
          4.0145,
          2.8574,
          2.1965,
          1.8055,
          1.4874,
          1.2101,
          0.94731,
          0.85771,
          0.80882,
          0.71674,
          0.55438,
          0.46146,
          0.47364,
          0.56868,
          0.61615,
          0.4491,
          0.33706,
          0.30792,
          0.44763,
          0.56958,
          0.6626,
          0.61241,
          0.64238,
          0.69703,
          0.72424,
          0.92883,
          1.0936,
          1.5236,
          1.8272,
          2.1404,
          2.5,
          3.1578,
          4.1494,
          4.975,
          6.3526,
          8.6011,
          11.468,
          16.298,
          24.729,
          40.386,
          70.61,
          124.63,
          223.31,
          343.72,
          420.16,
          444.54,
          397.18,
          271.09,
          142.48,
          67.258,
          33.531,
          21.83,
          14.725,
          10.287,
          7.5163,
          5.9989,
          4.9836,
          4.022,
          3.7139,
          3.3591,
          2.8475,
          2.4025,
          2.0784,
          1.7813,
          1.5197,
          1.3276,
          1.3126,
          1.2071,
          1.2664,
          1.242,
          1.3206,
          1.6206,
          2.0263,
          3.4206,
          6.4853,
          11.407,
          20.177,
          31.195,
          39.483,
          39.762,
          28.362,
          15.607,
          6.1112,
          2.0992,
          0.77872,
          0.62498,
          0.72554,
          0.82826,
          0.90996,
          1.1192,
          1.1317,
          1.4229,
          1.8636,
          2.4935,
          3.2992,
          4.7976,
          7.9332,
          12.708,
          19.572,
          30.642,
          49.194,
          77.071,
          106.87,
          128.1,
          137.99,
          136.63,
          111.01,
          87.378,
          76.555,
          65.334,
          49.943,
          34.864,
          21.689,
          14.321,
          10.878,
          8.7796,
          7.6543,
          6.7498,
          5.7622,
          5.384,
          5.1303,
          4.9656,
          4.5857,
          4.0988,
          3.672,
          3.6641,
          3.4696,
          3.4102,
          3.3888,
          3.4343,
          3.5606,
          3.7132,
          3.7102,
          4.071,
          3.9667,
          3.5616,
          2.9059,
          1.9891,
          1.3556,
          1.0998,
          1.1259,
          1.2359,
          1.3499,
          1.3795,
          1.1908,
          1.093,
          1.202,
          1.2087,
          1.115,
          1.1346,
          1.4834,
          1.9497,
          2.052,
          2.3306,
          2.7982,
          3.0176,
          2.7759,
          2.5773,
          2.4442,
          2.4927,
          2.655,
          2.8138,
          3.2661,
          4.4383,
          5.8475,
          7.7083,
          9.9159,
          13.046,
          16.686,
          22.596,
          30.148,
          35.999,
          41.447,
          44.245,
          38.61,
          29.224,
          18.634,
          10.848,
          6.0703,
          3.9536,
          2.8851,
          2.043,
          1.5161,
          1.3444,
          1.2519,
          1.1725,
          1.0825,
          0.97655,
          0.95818,
          1.0048,
          1.0984,
          1.0772,
          1.2365,
          1.3009,
          1.5236,
          1.8581,
          1.9578,
          2.3361,
          3.1886,
          3.8905,
          4.4131,
          6.0894,
          9.0935,
          14.24,
          22.779,
          34.648,
          55.872,
          85.736,
          132.43,
          195.0,
          231.3,
          235.62,
          188.75,
          125.06,
          67.018,
          45.127,
          45.427,
          54.055,
          53.908,
          41.524,
          25.319,
          14.041,
          8.7052,
          6.9607,
          5.5097,
          4.2932,
          3.3742,
          2.9163,
          2.6357,
          2.1357,
          2.1903,
          2.0022,
          1.7065,
          1.7631,
          1.7363,
          1.5867,
          1.4367,
          1.2851,
          1.2893,
          1.2907,
          1.6841,
          2.32,
          3.4082,
          5.18,
          7.3269,
          10.345,
          11.186,
          8.0299,
          5.432,
          3.7956,
          2.845,
          2.7657,
          3.4346,
          4.2872,
          5.031,
          6.7278,
          9.5695,
          13.85,
          18.469,
          20.948,
          16.866,
          8.4232,
          3.3654,
          1.325,
          0.7774,
          0.68328,
          0.79295,
          1.0715,
          1.3499,
          1.7575,
          2.1356,
          2.4522,
          2.4839,
          2.2638,
          1.9008,
          1.401,
          0.94788,
          0.9326,
          1.0781,
          1.368,
          2.4442,
          4.5585,
          7.6804,
          12.693,
          18.789,
          29.188,
          51.314,
          73.91,
          74.728,
          53.76,
          28.796,
          9.6073,
          4.4269,
          2.1204,
          1.61,
          1.6811,
          1.683,
          1.5343,
          1.3413,
          1.2033,
          1.3417,
          1.2962,
          1.1719,
          1.32,
          1.2737,
          1.0984,
          0.85912,
          0.90491,
          1.0829,
          1.1667,
          1.293,
          1.1037,
          0.98709,
          1.0875,
          0.99952,
          1.0001,
          0.9954,
          1.0291,
          1.048,
          0.99178,
          0.85572,
          0.78987,
          1.0508,
          1.1781,
          1.1096,
          1.251,
          1.3942,
          1.5723,
          1.6461,
          1.8849,
          1.7663,
          1.7808,
          1.9293,
          2.0673,
          2.1937,
          2.3333,
          2.2408,
          2.5419,
          2.7747,
          2.9421,
          3.3049,
          4.1246,
          4.3735,
          5.4121,
          6.4534,
          7.7674,
          10.481,
          13.689,
          15.788,
          16.419,
          11.65,
          7.3004,
          3.6717,
          2.2594,
          2.1236,
          2.4865,
          3.0218,
          3.564,
          4.062,
          4.8755,
          5.5314,
          6.5269,
          7.5965,
          9.9163,
          13.964,
          17.662,
          23.54,
          31.515,
          40.417,
          51.632,
          62.207,
          84.266,
          119.28,
          155.31,
          187.2,
          195.31,
          177.72,
          132.62,
          81.77,
          42.821,
          20.932,
          11.149,
          6.7948,
          4.5875,
          3.6221,
          4.6574,
          6.869,
          8.8189,
          11.352,
          16.872,
          23.381,
          27.826,
          25.637,
          19.197,
          12.791,
          9.1262,
          10.592,
          17.032,
          21.835,
          24.943,
          20.771,
          14.966,
          8.6138,
          4.3073,
          2.5876,
          1.5876,
          1.1872,
          1.0619,
          0.72966,
          0.59065,
          0.81015,
          0.95185,
          0.90102,
          0.91621,
          1.3943,
          1.8434,
          1.5004,
          1.178,
          0.74624,
          0.55428,
          0.39365,
          0.30871,
          0.25014,
          0.29749,
          0.22438,
          0.23114,
          0.22786,
          0.26315,
          0.43502,
          0.34273,
          0.62429,
          1.1002,
          1.4919,
          2.2438,
          3.2336,
          5.1198,
          9.4869,
          13.517,
          11.831,
          8.7342,
          4.8717,
          3.2906,
          3.6436,
          4.4942,
          6.9155,
          12.415,
          19.229,
          20.702,
          18.458,
          16.252,
          7.0996,
          4.3566,
          2.45,
          1.1237,
          0.6193,
          0.51939,
          0.56171,
          0.87113,
          0.78571,
          1.3613,
          1.5539,
          2.1645,
          2.9961,
          4.4948,
          6.9797,
          10.726,
          16.873,
          29.458,
          46.821,
          50.447,
          43.184,
          32.5,
          9.8687,
          3.3244,
          2.089,
          1.5532,
          1.2093,
          0.97419,
          0.89122,
          1.0537,
          1.3742,
          1.7867,
          2.0564,
          1.9766,
          1.9055,
          2.1023,
          2.2635,
          2.5894,
          3.5435,
          5.6287,
          7.8024,
          8.4893,
          9.2838,
          9.8228,
          10.237,
          10.082,
          8.0077,
          4.3993,
          2.8984,
          3.4097,
          4.1934,
          4.6057,
          6.1794,
          10.504,
          16.286,
          23.985,
          32.679,
          31.789,
          27.479,
          17.049,
          4.424,
          2.6677,
          2.6392,
          3.7285,
          5.1124,
          6.6352,
          13.418,
          22.593,
          26.122,
          25.365,
          22.705,
          18.555,
          21.969,
          22.081,
          21.708,
          11.132,
          3.7414,
          2.8295,
          4.4426,
          8.2861,
          10.122,
          9.4219,
          5.9594,
          2.7192,
          0.89406,
          0.59071,
          0.61849,
          0.8365,
          1.5969,
          3.7299,
          5.6713,
          6.3595,
          5.3716,
          1.8673,
          1.1596,
          0.65837,
          0.38881,
          0.010124,
          0.072248,
          0.22737,
          0.40918,
          0.66987,
          1.1097,
          1.7407,
          1.6899,
          2.2636,
          1.7822,
          0.79923,
          0.52763,
          0.59031,
          0.65078,
          1.3151,
          2.8913,
          5.7928,
          6.8185,
          5.9577,
          3.5618,
          0.91352,
          0.8067,
          0.56723,
          0.73146,
          1.2296,
          1.2547,
          1.3793,
          2.0351,
          2.3827,
          3.0343,
          5.0402,
          10.078,
          13.247,
          14.926,
          15.28,
          5.7781,
          3.0864,
          4.6791,
          7.9932,
          9.9377,
          11.532,
          7.8278,
          2.4695,
          1.2411,
          1.2214,
          1.7461,
          2.4612,
          2.718,
          3.4652,
          4.7481,
          8.0111,
          11.601,
          16.265,
          15.869,
          13.213,
          7.2011,
          6.5962,
          10.349,
          22.247,
          31.559,
          39.58,
          23.424,
          8.9997,
          7.72,
          10.093,
          17.244,
          26.195,
          33.115,
          35.883,
          21.256,
          5.0472,
          2.0221,
          1.2454,
          1.4141,
          2.1686,
          2.5553,
          3.0567,
          2.532,
          1.6348,
          2.298,
          3.3551,
          5.9694,
          7.2655,
          10.196,
          10.741,
          8.0879,
          6.3921,
          4.0674,
          3.9478,
          5.0553,
          7.0722,
          9.5518,
          10.789,
          5.5598,
          5.061,
          5.7773,
          5.0068,
          5.71,
          7.821,
          10.837,
          6.5289,
          3.0564,
          2.6781,
          4.115,
          6.401,
          10.852,
          14.786,
          17.846,
          8.5217,
          3.8855,
          3.9949,
          4.3117,
          5.8728,
          10.188,
          14.379,
          13.517,
          2.7448,
          0.49805,
          0.24602,
          0.18005,
          0.34627,
          0.35086,
          0.4298,
          0.59966,
          1.2321,
          2.479,
          3.7372,
          5.4179,
          6.38,
          4.0886,
          1.4089,
          0.69397,
          0.75693,
          1.1948,
          1.888,
          3.0633,
          4.2492,
          4.3768,
          6.3757,
          11.503,
          16.455,
          24.823,
          20.075,
          10.618,
          6.4356,
          1.1949,
          0.23563,
          0.19522,
          0.27351,
          0.39412,
          0.819,
          1.1918,
          1.8118,
          2.6664,
          3.5645,
          7.5205,
          11.19,
          8.8027,
          2.6384,
          0.6118,
          0.6367,
          1.0311,
          1.3375,
          1.3804,
          1.1411,
          1.0689,
          0.73664,
          0.90747,
          1.0214,
          1.5447,
          2.5257,
          2.5447,
          3.2757,
          2.4905,
          0.89662,
          0.81781,
          1.8637,
          3.1263,
          4.7136,
          7.2179,
          6.0346,
          3.6606,
          3.0691,
          5.2513,
          7.1928,
          3.5392,
          2.3677,
          4.0224,
          7.1617,
          6.8568,
          3.5123,
          3.681,
          2.9354,
          3.5154,
          5.8328,
          13.506,
          8.5901,
          2.4259,
          0.89138,
          0.63326,
          0.67151,
          1.2153,
          2.7626,
          3.3649,
          4.9283,
          3.1028,
          2.2156,
          3.2718,
          5.1653,
          6.3471,
          7.6183,
          3.2181,
          0.92331,
          0.68671,
          0.53107,
          0.6655,
          1.1282,
          2.0902,
          3.9166,
          5.9057,
          1.9984,
          0.87129,
          1.2224,
          1.9026,
          3.394,
          6.1652,
          5.7966,
          2.8401,
          3.1699,
          5.5754,
          5.3825,
          6.4055,
          12.086,
          12.502,
          2.7924,
          0.52634,
          0.46956,
          0.50009,
          0.76294,
          1.5312,
          2.8204,
          2.9085,
          3.1584,
          5.1852,
          9.9348,
          16.707,
          20.737,
          13.285,
          8.2443,
          3.2854,
          2.2687,
          2.5726,
          2.0943,
          1.1498,
          1.1969,
          1.4964,
          0.98006,
          0.864,
          1.9832,
          1.5983,
          0.5877,
          0.44678,
          0.01255,
          0.17632,
          0.41418,
          0.61205,
          0.92247,
          1.2678,
          2.72,
          6.3458,
          10.589,
          8.0931,
          3.1619,
          1.5847,
          1.5413,
          2.501,
          2.1186,
          0.88117,
          0.57355,
          0.95796,
          0.99426,
          2.1508,
          2.1353,
          0.7572,
          0.42455,
          0.41158,
          1.7834,
          1.851,
          2.2329,
          0.79061,
          0.33438,
          0.54183,
          0.55674,
          0.72701,
          1.2536,
          2.8765,
          1.8177,
          1.0125,
          1.1351,
          1.4954,
          3.6833,
          5.8225,
          3.3366,
          2.1482,
          3.2888,
          5.6191,
          7.0277,
          2.8761,
          0.86904,
          1.4284,
          0.94498,
          1.8459,
          2.7045,
          2.7929,
          2.8498,
          2.1843,
          1.8182,
          2.6414,
          4.0071,
          4.6961
        ],
        [
          67.26,
          64.51,
          90.22,
          99.95,
          84.08,
          96.4,
          58.85,
          70.06,
          96.17,
          115.61,
          1085.83,
          995.01,
          233.35,
          534.35,
          331.63,
          150.13,
          73.08,
          59.64,
          34.67,
          23.4,
          33.58,
          13.79,
          16.8,
          12.76,
          14.11,
          16.46,
          9.73,
          9.59,
          9.22,
          9.08,
          8.99,
          18.94,
          38.98,
          100.61,
          688.67,
          1812.4,
          420.25,
          156.56,
          115.68,
          93.14,
          130.29,
          91.58,
          75.67,
          49.23,
          47.46,
          45.11,
          44.42,
          52.21,
          49.52,
          54.41,
          52.07,
          50.67,
          83.78,
          112.03,
          61.03,
          60.03,
          72.65,
          68.26,
          106.0,
          84.49,
          63.5,
          199.8,
          770.83,
          276.8,
          924.09,
          283.34,
          133.25,
          60.28,
          44.27,
          52.33,
          29.81,
          45.87,
          22.86,
          11.7,
          9.4,
          10.36,
          28.5,
          49.41,
          69.49,
          126.95,
          108.88,
          174.19,
          835.84,
          114.56,
          56.05,
          120.93,
          1476.64,
          74.33,
          48.1,
          44.99,
          62.45,
          52.3,
          53.27,
          64.16,
          72.33,
          39.5,
          46.88,
          54.51,
          61.3,
          76.59,
          63.98,
          70.27,
          72.47,
          89.36,
          79.37,
          74.48,
          130.43,
          499.36,
          80.26,
          381.55,
          95.03,
          645.86,
          99.6,
          168.01,
          80.18,
          80.38,
          134.51,
          96.76,
          114.83,
          84.04,
          80.41,
          21.79,
          77.0,
          21.06,
          85.65,
          74.56,
          67.59,
          25.6,
          48.34,
          43.3,
          38.95,
          41.93,
          11.46,
          12.37,
          19.96,
          18.3,
          9.68,
          7.47,
          7.76,
          7.32,
          7.71,
          11.96,
          21.85,
          23.73,
          17.69,
          25.79,
          30.89,
          21.64,
          12.25,
          33.38,
          26.71,
          35.12,
          17.36,
          46.82,
          55.78,
          26.01,
          26.17,
          57.2,
          125.99,
          36.31,
          61.62,
          79.6,
          29.72,
          66.48,
          44.15,
          357.72,
          18712.64,
          88.55,
          382.29,
          48.84,
          220.86,
          67.0,
          796.41,
          89.69,
          231.81,
          104.31,
          86.41,
          79.17,
          24.23,
          50.79,
          121.33,
          173.88,
          55.46,
          115.57,
          157.67,
          65.91,
          85.28,
          25.98,
          102.14,
          63.9,
          213.93,
          368.61,
          173.48,
          136.12,
          46.29,
          84.73,
          86.74,
          57.25,
          735.73,
          184.86,
          157.9,
          88.15,
          140.58,
          696.64,
          762.8,
          148.65,
          96.06,
          35.9,
          51.31,
          64.02,
          38.66,
          177.25,
          152.91,
          167.51,
          54.79,
          218.51,
          86.3,
          483.59,
          206.16,
          183.61,
          81.62,
          402.48,
          54.75,
          147.55,
          306.34,
          214.81,
          107.07,
          74.36,
          35.79,
          78.61,
          96.5,
          47.75,
          281.37,
          727.34,
          193.54,
          443.29,
          87.91,
          52.22,
          52.79,
          37.24,
          66.53,
          74.12,
          32.39,
          58.96,
          40.96,
          70.71,
          35.59,
          83.23,
          35.38,
          32.27,
          92.07,
          80.85,
          68.38,
          29.77,
          64.5,
          91.87,
          116.05,
          68.14,
          92.92,
          27.9,
          85.23,
          76.6,
          60.42,
          28.69,
          37.91,
          36.6,
          32.5,
          18.2,
          24.21,
          14.84,
          19.25,
          15.9,
          18.9,
          27.43,
          47.59,
          130.31,
          68.94,
          201.42,
          138.11,
          116.02,
          32.78,
          66.31,
          1182.28,
          303.16,
          221.23,
          246.21,
          47.61,
          118.45,
          57.71,
          168.89,
          167.07,
          149.72,
          112.19,
          56.74,
          137.66,
          363.86,
          228.73,
          113.63,
          113.42,
          96.6,
          59.47,
          99.33,
          64.64,
          41.21,
          28.96,
          49.94,
          51.34,
          24.45,
          49.73,
          30.08,
          22.69,
          39.13,
          47.82,
          45.09,
          78.92,
          179.83,
          64.42,
          65.42,
          69.98,
          39.86,
          68.21,
          32.36,
          97.23,
          105.3,
          61.13,
          50.82,
          25.68,
          43.91,
          31.9,
          56.13,
          50.59,
          23.53,
          36.61,
          56.28,
          64.12,
          63.15,
          36.98,
          43.9,
          34.52,
          34.54,
          19.65,
          30.79,
          28.2,
          28.75,
          17.2,
          27.29,
          28.39,
          13.92,
          22.2,
          29.12,
          48.65,
          27.58,
          30.9,
          32.73,
          32.46,
          19.87,
          36.92,
          39.95,
          26.16,
          40.48,
          38.26,
          21.99,
          34.06,
          34.23,
          20.87,
          31.04,
          28.07,
          28.99,
          28.97,
          27.16,
          33.64,
          18.38,
          34.57,
          37.99,
          26.02,
          24.71,
          15.42,
          25.5,
          28.44,
          21.92,
          27.67,
          14.07,
          46.76,
          30.48,
          12.07,
          30.43,
          26.01,
          24.03,
          23.84,
          13.71,
          29.24,
          34.41,
          45.16,
          12.8,
          37.58,
          36.09,
          28.45,
          25.14,
          15.08,
          13.51,
          19.47,
          17.14,
          16.43,
          10.17,
          14.63,
          17.91,
          15.37,
          10.29,
          16.83,
          12.4,
          12.14,
          12.98,
          20.57,
          9.79,
          13.33,
          11.71,
          13.81,
          15.7,
          15.42,
          14.49,
          8.56,
          12.87,
          10.6,
          10.66,
          17.95,
          25.58,
          11.29,
          10.55,
          10.35,
          8.61,
          10.71,
          12.45,
          29.54,
          17.07,
          9.83,
          9.49,
          9.32,
          9.44,
          10.66,
          7.91,
          10.15,
          9.44,
          9.23,
          9.08,
          9.24,
          9.32,
          9.16,
          9.06,
          7.91,
          9.57,
          9.04,
          7.84,
          8.77,
          15.98,
          13.7,
          8.04,
          9.03,
          10.78,
          15.21,
          15.77,
          22.05,
          10.74,
          13.94,
          9.71,
          10.71,
          11.25,
          10.63,
          8.78,
          6.88,
          7.06,
          7.51,
          7.39,
          10.43,
          10.32,
          8.61,
          9.64,
          8.75,
          6.83,
          8.06,
          11.15,
          15.51,
          17.0,
          14.84,
          10.71,
          9.84,
          8.17,
          7.6,
          9.11,
          11.04,
          13.59,
          15.97,
          16.07,
          16.68,
          15.56,
          16.96,
          17.15,
          14.36,
          11.99,
          9.11,
          9.14,
          10.14,
          11.85,
          10.96,
          8.82,
          9.06,
          8.51,
          8.88,
          8.63,
          10.05,
          8.65,
          7.18,
          7.52,
          7.19,
          7.96,
          9.7,
          7.48,
          7.9,
          7.36,
          7.33,
          8.2,
          8.5,
          7.94,
          9.07,
          9.0,
          9.5,
          9.6,
          8.6,
          11.81,
          14.99,
          17.14,
          17.28,
          12.26,
          15.62,
          21.73,
          21.06,
          19.0,
          8.1,
          20.21,
          21.33,
          23.83,
          27.02,
          19.57,
          16.63,
          19.85,
          30.04,
          25.74,
          8.6,
          25.53,
          24.88,
          24.58,
          33.1,
          9.77,
          21.92,
          10.27,
          33.49,
          35.21,
          54.81,
          41.92,
          36.69,
          14.19,
          45.52,
          13.67,
          45.27,
          35.78,
          39.54,
          56.09,
          23.94,
          83.55,
          34.34,
          18.55,
          15.11,
          16.0,
          19.69,
          12.36,
          41.26,
          41.05,
          44.35,
          30.75,
          27.2,
          11.96,
          36.52,
          38.19,
          42.76,
          46.48,
          12.37,
          56.72,
          42.98,
          40.75,
          84.95,
          276.27,
          113.25,
          302.05,
          127.7,
          98.08,
          103.44,
          92.2,
          83.78,
          122.68,
          451.93,
          1090.37,
          619.08,
          38.68,
          132.68,
          266.71,
          58.74,
          1064.77,
          362.42,
          126.13,
          163.23,
          364.65,
          73.26,
          1678.87,
          82337.02,
          148.73,
          166.55,
          77.52,
          107.61,
          290.26,
          111.21,
          85.33,
          59.58,
          64.09,
          67.97,
          56.71,
          82.81,
          95.69,
          411.56,
          166.1,
          90.65,
          70.51,
          63.66,
          40.96,
          52.87,
          34.47,
          51.26,
          44.07,
          63.39,
          68.82,
          71.63,
          2431.53,
          548.59,
          179.96,
          32.09,
          127.0,
          78.99,
          82.34,
          42.59,
          1693.92,
          1879.43,
          88.79,
          149.58,
          40.82,
          49.79,
          80.45,
          63.92,
          25.06,
          12.34,
          16.01,
          13.57,
          12.37,
          21.18,
          34.29,
          46.7,
          69.94,
          20.83,
          74.46,
          54.14,
          55.97,
          40.14,
          23.15,
          15.3,
          19.21,
          29.98,
          46.68,
          16.8,
          85.59,
          400.91,
          87.59,
          44.61,
          50.75,
          49.16,
          22.11,
          48.61,
          36.48,
          18.86,
          38.73,
          14.7,
          28.34,
          24.35,
          32.89,
          19.95,
          71.19,
          86.25,
          26.02,
          72.88,
          70.13,
          24.32,
          47.33,
          46.2,
          36.86,
          34.84,
          45.96,
          40.88,
          35.64,
          11.57,
          40.21,
          36.55,
          33.91,
          32.25,
          33.19,
          32.3,
          26.63,
          28.75,
          42.82,
          30.67,
          57.03,
          54.42,
          46.12,
          36.35,
          28.07,
          17.2,
          14.07,
          21.55,
          25.87,
          18.24,
          15.83,
          16.23,
          11.05,
          20.71,
          18.42,
          18.52,
          19.57,
          17.15,
          13.4,
          14.09,
          16.74,
          10.1,
          11.7,
          10.85,
          10.98,
          13.0,
          9.16,
          14.25,
          10.65,
          8.22,
          10.49,
          9.83,
          8.22,
          8.66,
          8.75,
          9.03,
          8.5,
          8.46,
          11.17,
          12.74,
          10.74,
          8.69,
          10.15,
          7.92,
          7.9,
          9.3,
          11.32,
          14.25,
          21.98,
          35.98,
          27.97,
          28.95,
          24.58,
          14.5,
          8.2,
          8.12,
          7.98,
          11.81,
          12.82,
          9.02,
          8.03,
          8.24,
          11.67,
          14.64,
          16.98,
          16.3,
          13.36,
          8.61,
          11.98,
          20.2,
          27.44,
          28.05,
          28.1,
          16.07,
          15.99,
          20.16,
          22.51,
          14.04,
          8.67,
          10.78,
          20.85,
          33.93,
          39.25,
          41.0,
          25.76,
          19.87,
          14.84,
          16.46,
          11.3,
          9.27,
          8.39,
          10.95,
          9.98,
          9.19,
          7.56,
          7.93,
          11.25,
          21.71,
          17.79,
          8.53,
          7.54,
          7.52,
          8.92,
          13.3,
          19.8,
          28.49,
          24.23,
          20.99,
          26.01,
          22.84,
          14.51,
          7.89,
          9.49,
          16.36,
          26.87,
          41.71,
          50.68,
          50.5,
          43.59,
          23.26,
          18.42,
          13.76,
          14.24,
          14.18,
          13.24,
          12.32,
          11.64,
          9.29,
          11.11,
          13.52,
          14.47,
          12.29,
          14.03,
          10.85,
          11.14,
          13.98,
          15.45,
          14.99,
          20.73,
          12.7,
          27.65,
          20.53,
          12.3,
          8.88,
          9.5,
          8.53,
          10.52,
          11.33,
          10.53,
          8.76,
          11.43,
          9.78,
          13.32,
          8.97,
          10.59,
          12.64,
          9.62,
          8.32,
          8.2,
          9.48,
          7.1,
          10.97,
          8.82,
          9.3,
          11.19,
          9.43,
          7.81,
          8.44,
          6.77,
          7.46,
          6.72,
          13.45,
          7.76,
          7.03,
          7.67,
          13.73,
          13.75,
          15.42,
          17.25,
          13.02,
          8.83,
          10.89,
          9.47,
          8.7,
          13.26,
          23.38,
          39.77,
          36.37,
          18.79,
          8.44,
          7.64,
          9.5,
          11.48,
          8.39,
          6.75,
          7.64,
          11.01,
          13.29,
          11.63,
          11.28,
          9.46,
          8.13,
          7.87,
          7.46,
          11.3,
          17.98,
          27.19,
          35.44,
          35.31,
          42.67,
          37.92,
          29.94,
          30.43,
          26.68,
          21.12,
          17.02,
          17.68,
          29.15,
          27.7,
          21.12,
          16.96,
          10.1,
          8.05,
          13.17,
          22.59,
          32.29,
          29.55,
          30.12,
          23.3,
          17.15,
          10.86,
          11.31,
          14.33,
          14.81,
          12.67,
          8.86,
          8.99,
          13.03,
          18.97,
          16.92,
          17.81,
          11.67,
          11.19,
          24.13,
          38.79,
          54.73,
          28.95,
          12.34,
          7.78,
          15.42,
          14.94,
          11.56,
          11.59,
          7.67,
          16.3,
          13.18,
          13.51,
          9.58,
          9.98,
          13.62,
          10.43,
          8.37,
          9.77,
          10.76,
          11.37,
          14.46,
          12.59,
          10.53,
          9.77,
          9.55,
          10.73,
          12.46,
          9.01,
          10.17,
          15.48,
          25.88,
          29.75,
          37.17,
          32.59,
          29.04,
          25.62,
          18.03,
          14.2,
          12.19,
          11.31,
          9.68,
          7.89,
          8.29,
          9.69,
          9.0,
          7.59,
          8.68,
          9.91,
          10.15,
          7.08,
          10.11,
          8.17,
          9.82,
          14.22,
          10.57,
          20.77,
          25.3,
          23.35,
          20.64,
          21.6,
          15.75,
          8.36,
          16.31,
          32.16,
          44.27,
          51.06,
          41.8,
          13.11,
          20.65,
          16.26,
          12.22,
          11.72,
          7.28,
          16.48,
          17.96,
          18.14,
          13.97,
          11.05,
          12.01,
          12.98,
          13.18,
          14.82,
          14.28,
          11.59,
          11.2,
          9.65,
          7.22,
          7.08,
          9.79,
          11.45,
          9.65,
          9.55,
          11.69,
          17.2,
          22.8,
          27.05,
          18.82,
          11.03,
          10.79,
          9.44,
          8.46,
          8.18,
          7.43,
          6.77,
          7.08,
          7.24,
          8.02,
          9.03,
          7.22,
          7.23,
          7.26,
          7.25,
          7.23,
          7.67,
          6.71,
          7.19,
          7.13,
          7.17,
          9.03,
          16.78,
          20.96,
          24.25,
          11.77,
          12.46,
          8.81,
          8.34,
          8.43,
          10.81,
          13.68,
          8.49,
          7.78,
          9.81,
          17.79,
          16.44,
          9.01,
          11.78,
          10.48,
          7.42,
          7.53,
          7.4,
          7.02,
          7.65,
          7.66,
          7.61,
          7.53,
          9.9,
          8.47,
          9.29,
          9.97,
          11.0,
          10.97,
          10.01,
          13.97,
          13.48,
          8.58,
          7.01,
          10.45,
          11.17,
          15.59,
          19.31,
          20.4,
          21.51,
          13.84,
          14.06,
          18.32,
          14.2,
          8.58,
          8.89,
          8.88,
          9.69,
          10.33,
          10.28,
          10.22,
          7.43,
          10.57,
          8.83,
          11.25,
          10.46,
          8.06,
          10.96,
          10.56,
          8.15,
          7.35,
          9.05,
          11.62,
          8.92,
          10.44,
          10.23,
          8.37,
          10.06,
          8.27,
          7.96,
          8.75,
          7.99,
          10.95,
          19.88,
          34.98,
          32.14,
          14.95,
          7.97,
          8.3,
          13.29,
          20.78,
          32.49,
          35.08,
          18.03,
          12.09,
          14.32,
          16.42,
          10.48,
          8.35,
          10.51,
          10.3,
          8.56,
          8.81,
          9.55,
          9.02,
          7.34,
          8.67,
          9.22,
          10.12,
          9.07,
          11.83,
          11.39,
          15.21,
          11.74,
          10.36,
          12.64,
          10.56,
          9.98,
          25.27,
          26.93,
          23.0,
          15.41,
          7.76,
          9.41,
          9.22,
          7.47,
          8.64,
          9.2,
          10.77,
          7.8,
          8.78,
          12.52,
          34.91,
          69.41,
          48.53,
          19.52,
          26.8,
          22.93,
          11.78,
          9.95,
          11.1,
          10.12,
          8.15,
          8.15,
          8.22,
          12.39,
          12.03,
          12.56,
          10.37,
          10.05,
          9.51,
          19.71,
          15.49,
          16.24,
          17.57,
          11.1,
          11.34,
          10.19,
          10.1,
          11.5,
          22.71,
          42.99,
          66.45,
          49.22,
          27.55,
          9.06,
          9.08,
          9.04,
          9.29,
          9.63,
          12.17,
          9.7,
          9.68,
          9.98,
          9.86,
          9.93,
          15.13,
          23.77,
          12.35,
          8.37,
          10.3,
          10.1,
          18.75,
          19.0,
          10.76,
          11.0,
          11.79,
          8.77,
          11.0,
          11.0,
          11.22,
          20.03,
          30.88,
          11.23,
          9.15,
          19.95,
          10.2,
          10.3,
          8.68,
          9.36,
          9.44,
          9.22,
          9.12,
          9.06,
          9.25,
          7.46,
          8.74,
          8.7,
          8.49,
          8.37,
          12.13,
          11.28,
          8.4,
          7.77,
          8.27,
          7.44,
          8.95,
          11.6,
          11.53,
          8.72,
          8.83,
          16.31,
          13.86,
          19.59,
          14.87,
          9.55,
          9.32,
          8.61,
          8.42,
          8.54,
          9.28,
          9.82,
          8.35,
          9.29,
          11.6,
          9.97,
          9.03,
          10.31,
          12.63,
          10.69,
          10.78,
          9.21,
          9.77,
          12.92,
          13.24,
          10.28,
          9.01,
          9.29,
          16.53,
          29.62,
          31.74,
          23.52,
          33.99,
          35.35,
          27.6,
          17.52,
          11.88,
          10.83,
          12.83,
          28.34,
          31.69,
          16.53,
          9.95,
          7.33,
          11.16,
          9.2,
          11.17,
          20.23,
          24.77,
          14.77,
          7.97,
          7.91,
          9.47,
          14.26,
          19.97,
          19.59,
          29.5,
          19.39,
          10.47,
          27.78,
          48.76,
          20.27,
          21.1,
          31.35,
          41.94,
          22.85,
          11.71,
          14.07,
          23.56,
          38.19,
          27.32,
          44.79,
          46.97,
          43.57,
          19.33,
          39.8,
          45.24,
          50.61,
          46.21,
          14.43,
          57.52,
          38.78,
          28.09,
          26.12,
          24.18,
          18.49,
          27.8,
          22.35,
          11.74,
          9.69,
          9.27,
          19.07,
          15.14,
          11.11,
          10.93,
          15.4,
          33.8,
          14.38,
          8.95,
          7.53,
          8.57,
          15.77,
          14.66,
          37.78,
          37.86,
          36.45,
          41.01,
          48.41,
          19.31,
          47.42,
          22.37,
          20.21,
          18.49,
          17.78,
          12.52,
          18.31,
          17.14,
          17.33,
          21.22,
          18.08,
          9.29,
          10.95,
          13.02,
          27.6,
          30.5,
          22.17,
          22.35,
          37.05,
          39.85,
          38.16,
          28.56,
          23.85,
          12.78,
          10.53,
          14.67,
          16.35,
          10.44,
          11.45,
          13.1,
          19.51,
          28.36,
          15.1,
          8.37,
          7.67,
          7.59,
          7.18,
          7.63,
          16.54,
          27.44,
          17.37,
          12.17,
          9.13,
          9.64,
          18.93,
          22.05,
          18.53,
          23.46,
          13.83,
          7.37,
          10.05,
          42.63,
          34.97,
          12.06,
          10.24,
          13.02,
          15.74,
          12.71,
          30.42,
          14.7,
          9.3,
          7.07,
          12.27,
          18.54,
          8.59,
          8.74,
          7.02,
          44.7,
          24.5,
          15.45,
          16.18,
          11.37,
          8.62,
          7.7,
          27.45,
          45.22,
          32.75,
          28.52,
          23.55,
          20.18,
          12.45,
          26.49,
          11.91,
          8.2,
          18.8,
          57.15,
          14.27,
          33.66,
          28.39,
          1371.53,
          232.51,
          70.72,
          71.01,
          39.55,
          23.21,
          11.3,
          19.67,
          10.66,
          24.92,
          38.69,
          37.37,
          13.75,
          57.98,
          56.39,
          37.0,
          15.59,
          9.96,
          20.39,
          50.26,
          43.61,
          12.45,
          51.88,
          38.91,
          20.63,
          35.69,
          28.73,
          13.11,
          13.38,
          12.62,
          22.23,
          14.63,
          7.53,
          6.99,
          7.37,
          26.13,
          23.16,
          30.57,
          25.33,
          11.42,
          8.26,
          25.86,
          40.34,
          49.88,
          41.46,
          26.7,
          10.54,
          12.09,
          9.46,
          27.02,
          26.61,
          19.33,
          9.59,
          8.31,
          15.11,
          30.26,
          12.1,
          19.29,
          18.12,
          10.8,
          9.6,
          37.99,
          17.81,
          8.6,
          10.33,
          21.95,
          13.66,
          8.56,
          8.16,
          47.85,
          51.88,
          40.38,
          61.86,
          41.45,
          14.0,
          10.84,
          9.79,
          21.72,
          50.13,
          15.18,
          32.41,
          16.57,
          15.57,
          10.49,
          10.32,
          9.55,
          18.95,
          33.05,
          21.62,
          22.05,
          8.6,
          16.55,
          23.35,
          14.28,
          11.43,
          12.49,
          19.22,
          17.03,
          15.47,
          12.43,
          26.84,
          23.39,
          28.96,
          12.45,
          18.66,
          11.78,
          11.15,
          28.45,
          37.58,
          15.46,
          12.93,
          12.51,
          18.29,
          7.65,
          10.6,
          29.12,
          23.29,
          56.58,
          69.27,
          72.85,
          33.2,
          45.93,
          45.15,
          44.1,
          67.36,
          33.76,
          18.4,
          8.65,
          12.86,
          31.05,
          34.06,
          43.76,
          31.74,
          28.18,
          39.42,
          22.19,
          8.83,
          14.13,
          38.86,
          20.77,
          15.48,
          13.36,
          25.87,
          10.49,
          24.71,
          42.35,
          86.32,
          72.33,
          59.0,
          77.59,
          30.56,
          25.11,
          21.35,
          14.7,
          12.11,
          23.19,
          13.01,
          14.42,
          23.6,
          24.13,
          24.52,
          15.48,
          9.75,
          14.72,
          32.35,
          26.54,
          37.46,
          12.49,
          47.24,
          46.21,
          14.99,
          22.34,
          10.87,
          29.94,
          57.86,
          29.87,
          22.13,
          12.77,
          20.45,
          12.43,
          18.5,
          34.13,
          23.48,
          20.57,
          18.5,
          50.0,
          32.66,
          20.28,
          21.5,
          27.91,
          24.53,
          10.22,
          28.56,
          22.84,
          21.62,
          22.66,
          57.55,
          40.47,
          17.22,
          57.29,
          60.85,
          26.05,
          19.18,
          29.52,
          13.41,
          41.17,
          52.08,
          30.52,
          13.76,
          20.63,
          20.26,
          33.74,
          38.72,
          21.26,
          30.56,
          33.76,
          40.02,
          36.34,
          24.54,
          20.28,
          13.63,
          45.91,
          19.5,
          22.52,
          36.16,
          27.56,
          30.62,
          51.9,
          49.7,
          14.49,
          18.8,
          27.95,
          30.54,
          45.02,
          49.9,
          55.73,
          47.14,
          51.72,
          51.75,
          40.15,
          12.73,
          15.07,
          17.06,
          29.62,
          27.34,
          16.82,
          20.65,
          51.17,
          53.07,
          21.6,
          13.06,
          8.05,
          22.7,
          50.32,
          21.29,
          19.64,
          76.49,
          87.2,
          19.31,
          47.04,
          103.54,
          40.43,
          2024.92,
          150.14,
          63.99,
          42.34,
          28.1,
          46.9,
          44.12,
          35.66,
          9.93,
          30.89,
          21.5,
          29.34,
          38.84,
          12.45,
          23.73,
          42.61,
          42.56,
          49.37,
          97.4,
          30.66,
          37.46,
          30.94,
          49.45,
          57.86,
          35.32,
          46.96,
          36.55,
          37.74,
          40.19,
          28.56,
          27.53,
          140.16,
          119.68,
          31.54,
          71.49,
          82.89,
          53.77,
          50.13,
          32.96,
          26.37,
          42.75,
          35.78,
          38.74,
          30.75,
          28.31,
          58.36,
          111.65,
          14.16,
          85.68,
          30.23,
          11.72,
          11.28,
          11.29,
          28.77,
          46.63,
          36.8,
          18.97,
          17.17
        ]
      ]
    }
  },
  "10055-003": {
    "reaction": {
      "0": {
        "x4_code": "(92-U-232(N,F),,SIG)",
        "0": {
          "code": [
            "92-U-232",
            [
              "N,F"
            ],
            ",,SIG"
          ],
          "type": null,
          "target": "92-U-232",
          "process": "N,F",
          "sf49": ",,SIG",
          "sf4": null,
          "sf5": null,
          "sf6": "SIG",
          "sf7": null,
          "sf8": null,
          "sf9": null
        },
        "type": null,
        "free_text": ""
      }
    },
    "extra_information": {
      "monitor": {
        "0": [
          {
            "x4_code": "(92-U-235(N,F),,SIG)",
            "free_txt": [
              " Interpolation above 1 keV was done by comparison with",
              " previous measurements, see Browne, et al., LA-4095",
              " (1970)."
            ]
          }
        ]
      }
    },
    "common": null,
    "data": {
      "heads": [
        "EN",
        "DATA",
        "ERR-T"
      ],
      "units": [
        "EV",
        "B",
        "PER-CENT"
      ],
      "data": [
        [
          1002.19,
          1006.25,
          1010.33,
          1014.44,
          1018.57,
          1022.73,
          1026.92,
          1031.12,
          1035.36,
          1039.62,
          1043.91,
          1048.22,
          1052.56,
          1056.93,
          1061.33,
          1065.75,
          1070.2,
          1074.68,
          1079.19,
          1083.72,
          1088.28,
          1092.88,
          1097.5,
          1102.15,
          1106.83,
          1111.54,
          1116.28,
          1121.05,
          1125.85,
          1130.69,
          1135.55,
          1140.45,
          1145.37,
          1150.33,
          1155.32,
          1160.35,
          1165.4,
          1170.49,
          1175.62,
          1180.77,
          1185.97,
          1191.19,
          1196.45,
          1201.75,
          1207.08,
          1212.44,
          1217.84,
          1223.28,
          1228.75,
          1234.27,
          1239.81,
          1245.4,
          1251.02,
          1256.68,
          1262.38,
          1268.12,
          1273.9,
          1279.72,
          1285.58,
          1291.48,
          1297.41,
          1303.39,
          1309.42,
          1315.48,
          1321.58,
          1327.73,
          1333.92,
          1340.16,
          1346.44,
          1352.76,
          1359.13,
          1365.54,
          1372.0,
          1378.5,
          1385.05,
          1391.65,
          1398.29,
          1404.98,
          1411.72,
          1418.51,
          1425.35,
          1432.24,
          1439.17,
          1446.16,
          1453.2,
          1460.29,
          1467.43,
          1474.63,
          1481.87,
          1489.18,
          1496.53,
          1503.94,
          1511.41,
          1518.93,
          1526.5,
          1534.14,
          1541.83,
          1549.58,
          1557.39,
          1565.26,
          1573.18,
          1581.17,
          1589.22,
          1597.33,
          1605.5,
          1613.74,
          1622.03,
          1630.4,
          1638.83,
          1647.32,
          1655.88,
          1664.5,
          1673.2,
          1681.96,
          1690.79,
          1699.69,
          1708.67,
          1717.71,
          1726.82,
          1736.01,
          1745.27,
          1754.61,
          1764.02,
          1773.5,
          1783.07,
          1792.71,
          1802.43,
          1812.22,
          1822.1,
          1832.06,
          1842.1,
          1852.23,
          1862.44,
          1872.73,
          1883.11,
          1893.57,
          1904.12,
          1914.76,
          1925.49,
          1936.31,
          1947.23,
          1958.23,
          1969.33,
          1980.52,
          1991.81,
          2003.19,
          2014.68,
          2026.26,
          2037.94,
          2049.72,
          2061.61,
          2073.6,
          2085.69,
          2097.89,
          2110.2,
          2122.62,
          2135.15,
          2147.78,
          2160.53,
          2173.4,
          2186.38,
          2199.47,
          2212.69,
          2226.02,
          2239.48,
          2253.05,
          2266.75,
          2280.58,
          2294.53,
          2308.61,
          2322.83,
          2337.17,
          2351.64,
          2366.26,
          2381.0,
          2395.89,
          2410.92,
          2426.08,
          2441.4,
          2456.85,
          2472.46,
          2488.21,
          2504.12,
          2520.17,
          2536.39,
          2552.76,
          2569.28,
          2585.97,
          2602.83,
          2619.84,
          2637.03,
          2654.38,
          2671.91,
          2689.61,
          2707.49,
          2725.55,
          2743.78,
          2762.21,
          2780.81,
          2799.61,
          2818.6,
          2837.78,
          2857.16,
          2876.73,
          2896.51,
          2916.5,
          2936.69,
          2957.09,
          2977.7,
          2998.54,
          3019.59,
          3040.86,
          3062.36,
          3084.09,
          3106.05,
          3128.24,
          3150.68,
          3173.35,
          3196.27,
          3219.44,
          3242.87,
          3266.55,
          3290.49,
          3314.69,
          3339.17,
          3363.91,
          3388.93,
          3414.24,
          3439.82,
          3465.7,
          3491.86,
          3518.33,
          3545.1,
          3572.17,
          3599.56,
          3627.26,
          3655.28,
          3683.63,
          3712.31,
          3741.32,
          3770.68,
          3800.39,
          3830.44,
          3860.86,
          3891.64,
          3922.78,
          3954.31,
          3986.21,
          4018.51,
          4051.19,
          4084.28,
          4117.77,
          4151.68,
          4186.01,
          4220.77,
          4255.96,
          4291.59,
          4327.67,
          4364.21,
          4401.22,
          4438.69,
          4476.65,
          4515.1,
          4554.04,
          4593.49,
          4633.46,
          4673.95,
          4714.97,
          4756.53,
          4798.65,
          4841.33,
          4884.58,
          4928.41,
          4972.83,
          5017.86,
          5063.51,
          5109.77,
          5156.68,
          5204.23,
          5252.45,
          5301.34,
          5350.91,
          5401.19,
          5452.17,
          5503.88,
          5556.33,
          5609.54,
          5663.51,
          5718.26,
          5773.81,
          5830.18,
          5887.37,
          5945.41,
          6004.31,
          6064.1,
          6124.78,
          6186.37,
          6248.9,
          6312.38,
          6376.84,
          6442.28,
          6508.74,
          6576.24,
          6644.79,
          6714.41,
          6785.14,
          6856.99,
          6929.99,
          7004.15,
          7079.52,
          7156.11,
          7233.95,
          7313.07,
          7393.49,
          7475.24,
          7558.36,
          7642.87,
          7728.81,
          7816.21,
          7905.1,
          7995.51,
          8087.48,
          8181.05,
          8276.25,
          8373.12,
          8471.71,
          8572.04,
          8674.17,
          8778.14,
          8883.98,
          8991.75,
          9101.5,
          9213.27,
          9327.1,
          9443.06,
          9561.2,
          9681.57,
          9804.23,
          9929.23,
          10056.6,
          10186.5,
          10318.9,
          10453.9,
          10591.6,
          10732.0,
          10875.2,
          11021.3,
          11170.4,
          11322.5,
          11477.8,
          11636.2,
          11798.0,
          11963.2,
          12131.8,
          12304.1,
          12480.0,
          12659.8,
          12843.4,
          13031.1,
          13222.9,
          13419.0,
          13619.5,
          13824.5,
          14034.2,
          14248.7,
          14468.1,
          14692.7,
          14922.5,
          15157.8,
          15398.6,
          15645.3,
          15897.9,
          16156.7,
          16421.9,
          16693.6,
          16972.2,
          17257.8,
          17550.6,
          17851.0,
          18159.1,
          18475.3,
          18799.8,
          19133.0,
          19475.1,
          19826.4,
          20187.4,
          20558.2,
          20939.4,
          21331.4
        ],
        [
          3.4656,
          3.4752,
          4.4833,
          6.2538,
          8.3168,
          10.504,
          5.6744,
          2.8384,
          5.2773,
          9.6274,
          11.835,
          11.195,
          6.0317,
          3.315,
          3.3262,
          3.6815,
          4.3131,
          6.4964,
          3.0125,
          0.6618,
          0.60955,
          0.32104,
          0.68421,
          1.4177,
          2.479,
          3.6581,
          5.9023,
          9.1054,
          6.707,
          4.8825,
          2.5452,
          2.6713,
          5.806,
          5.7889,
          1.5491,
          0.61084,
          1.3535,
          2.2076,
          3.7689,
          8.3509,
          15.949,
          19.468,
          7.9169,
          2.85,
          1.7984,
          0.907,
          1.235,
          0.73642,
          0.58512,
          1.0711,
          2.4387,
          5.4108,
          2.7779,
          0.88159,
          0.85942,
          0.76814,
          0.54689,
          1.3764,
          2.6158,
          3.4731,
          2.6416,
          3.5953,
          4.0202,
          2.2621,
          3.2344,
          3.5804,
          2.1278,
          0.91613,
          0.52247,
          0.92384,
          1.4769,
          2.2539,
          3.4834,
          7.4654,
          9.0767,
          6.5197,
          8.5833,
          7.3146,
          3.9802,
          2.7049,
          2.7594,
          3.1811,
          2.9591,
          1.3355,
          0.53697,
          0.50877,
          1.264,
          2.0103,
          1.3841,
          1.7284,
          1.0839,
          1.2272,
          1.0154,
          0.92171,
          1.0186,
          2.1562,
          2.9155,
          2.977,
          3.3357,
          2.3954,
          1.7007,
          2.638,
          2.0388,
          2.1727,
          4.3208,
          3.5751,
          1.5886,
          0.9558,
          1.2853,
          1.7199,
          2.1924,
          3.4097,
          3.3227,
          1.7397,
          0.82095,
          0.74409,
          0.97417,
          0.97689,
          0.57632,
          0.54825,
          0.86031,
          0.68841,
          1.0557,
          3.1153,
          4.0557,
          3.8336,
          7.4599,
          7.0501,
          3.8724,
          2.6163,
          1.7332,
          1.6202,
          2.2565,
          2.4279,
          4.57,
          4.846,
          2.4987,
          3.4811,
          2.2741,
          1.8957,
          2.6359,
          2.2816,
          1.2849,
          1.4722,
          1.972,
          1.3981,
          0.83005,
          1.2808,
          1.578,
          1.987,
          2.3706,
          3.1487,
          6.0445,
          8.2771,
          5.6821,
          2.7159,
          2.4971,
          2.9158,
          1.5594,
          1.1107,
          1.6278,
          2.1201,
          0.67212,
          0.48922,
          0.65019,
          1.2874,
          3.3605,
          3.9317,
          1.7065,
          0.7985,
          1.2111,
          2.3666,
          2.7993,
          2.2901,
          1.3433,
          1.2493,
          2.1537,
          1.8133,
          1.8698,
          2.6717,
          2.5284,
          2.1525,
          1.8456,
          2.024,
          2.7816,
          3.7129,
          3.0476,
          3.1188,
          3.4171,
          2.194,
          1.3178,
          1.8921,
          1.5601,
          2.0314,
          3.1582,
          4.5626,
          4.4319,
          5.5409,
          5.5968,
          3.3112,
          2.5805,
          3.0587,
          3.9595,
          5.657,
          6.1498,
          5.2175,
          5.1148,
          2.5355,
          1.9154,
          1.4885,
          2.0698,
          2.7167,
          2.3209,
          2.1167,
          2.7572,
          2.9558,
          2.4376,
          2.1446,
          2.6613,
          2.4574,
          2.8929,
          2.4343,
          3.4941,
          3.5919,
          2.3485,
          1.6735,
          1.8037,
          2.4153,
          2.0559,
          1.5923,
          2.4898,
          1.8959,
          2.0248,
          3.7857,
          6.1659,
          5.1335,
          2.9712,
          3.3734,
          4.2045,
          2.8133,
          2.6694,
          2.3042,
          1.7067,
          2.6964,
          3.537,
          2.1503,
          1.7383,
          1.8524,
          1.6792,
          3.1733,
          3.9154,
          2.8312,
          2.2491,
          3.1081,
          3.7923,
          2.4416,
          1.5923,
          2.1618,
          3.1512,
          3.0755,
          1.9173,
          1.9973,
          1.7333,
          1.3739,
          1.5364,
          1.687,
          1.828,
          1.7873,
          1.6658,
          1.7296,
          1.6416,
          1.8522,
          1.3968,
          1.3762,
          1.8436,
          1.8627,
          1.7286,
          1.9532,
          1.6129,
          2.0527,
          2.3541,
          1.6288,
          1.2917,
          2.0509,
          2.5476,
          2.216,
          2.1929,
          2.033,
          1.484,
          1.3715,
          1.8124,
          2.0369,
          1.8698,
          1.8843,
          2.047,
          1.8928,
          1.8689,
          1.7702,
          1.7282,
          1.7881,
          1.675,
          1.641,
          1.7572,
          1.8507,
          1.6792,
          1.4159,
          1.4613,
          1.5236,
          1.5389,
          1.816,
          1.8412,
          1.399,
          1.0078,
          1.3636,
          1.5612,
          1.5439,
          1.5028,
          1.7306,
          1.3469,
          1.5111,
          1.9178,
          1.844,
          1.7005,
          1.9012,
          2.0022,
          1.7584,
          1.7734,
          1.7651,
          1.8294,
          1.9462,
          2.0717,
          1.9157,
          1.585,
          1.4652,
          1.2743,
          1.2964,
          1.3757,
          1.5355,
          1.7089,
          1.8174,
          1.6952,
          1.489,
          1.3694,
          1.2851,
          1.3085,
          1.6049,
          1.8664,
          1.7211,
          1.6037,
          1.4378,
          1.4927,
          1.5043,
          1.4558,
          1.4059,
          1.3563,
          1.4029,
          1.2956,
          1.2716,
          1.3277,
          1.3912,
          1.2752,
          1.277,
          1.2947,
          1.3109,
          1.3342,
          1.4513,
          1.6499,
          1.7648,
          1.6012,
          1.3248,
          1.3097,
          1.5999,
          1.9579,
          1.9195,
          1.8726,
          1.9611,
          1.7577,
          1.47,
          1.4612,
          1.5672,
          1.6801,
          1.6524,
          1.4274,
          1.1196,
          0.88644,
          1.0763,
          1.4201,
          1.7826,
          2.0734
        ],
        [
          32.11,
          37.06,
          25.67,
          23.38,
          29.09,
          20.31,
          39.94,
          56.66,
          40.44,
          11.93,
          9.08,
          8.75,
          16.01,
          23.28,
          11.44,
          13.63,
          26.41,
          9.74,
          43.3,
          91.66,
          19.04,
          78.6,
          70.17,
          35.22,
          19.13,
          27.68,
          27.49,
          15.02,
          31.82,
          25.91,
          42.19,
          58.78,
          25.55,
          35.68,
          53.15,
          58.77,
          48.13,
          49.18,
          23.78,
          21.45,
          11.55,
          10.91,
          20.71,
          18.23,
          34.45,
          57.64,
          16.02,
          57.32,
          63.48,
          22.35,
          27.76,
          15.48,
          58.96,
          68.97,
          20.57,
          47.14,
          93.89,
          55.15,
          25.21,
          27.9,
          39.63,
          19.07,
          29.26,
          39.65,
          24.03,
          16.14,
          22.56,
          47.94,
          101.19,
          49.42,
          33.43,
          22.53,
          45.49,
          27.97,
          33.4,
          36.3,
          9.5,
          18.42,
          20.33,
          13.65,
          10.8,
          11.79,
          26.64,
          37.11,
          65.0,
          70.87,
          29.48,
          16.03,
          30.89,
          15.12,
          31.6,
          17.01,
          35.1,
          43.41,
          80.91,
          27.25,
          13.2,
          11.08,
          13.34,
          20.1,
          39.65,
          19.19,
          34.23,
          35.98,
          16.89,
          20.64,
          45.5,
          46.55,
          17.8,
          14.12,
          21.15,
          13.97,
          19.81,
          60.38,
          53.32,
          17.76,
          22.65,
          15.51,
          54.2,
          24.91,
          20.06,
          32.72,
          43.44,
          13.02,
          12.87,
          22.0,
          12.91,
          30.57,
          36.73,
          26.43,
          44.61,
          32.69,
          12.0,
          34.41,
          12.85,
          26.42,
          36.44,
          12.52,
          34.9,
          27.8,
          12.59,
          34.89,
          56.33,
          36.49,
          19.56,
          24.48,
          66.17,
          37.84,
          28.48,
          13.39,
          12.62,
          13.13,
          14.71,
          12.24,
          22.21,
          48.73,
          28.46,
          12.92,
          33.22,
          39.18,
          24.95,
          12.63,
          72.93,
          47.53,
          36.98,
          38.97,
          22.76,
          26.64,
          28.36,
          56.76,
          37.02,
          13.59,
          17.51,
          13.65,
          37.31,
          38.46,
          14.09,
          16.76,
          14.52,
          13.15,
          12.55,
          12.99,
          17.96,
          15.91,
          12.79,
          12.35,
          11.7,
          17.67,
          22.39,
          36.32,
          59.75,
          12.74,
          34.52,
          25.17,
          12.71,
          11.08,
          10.94,
          11.56,
          11.01,
          18.49,
          31.29,
          19.6,
          12.88,
          11.4,
          18.75,
          12.52,
          20.0,
          17.14,
          13.86,
          25.03,
          19.69,
          13.25,
          12.27,
          19.82,
          11.71,
          12.87,
          24.83,
          14.18,
          12.97,
          12.25,
          13.28,
          22.23,
          13.23,
          11.84,
          17.34,
          26.72,
          15.77,
          13.31,
          13.48,
          36.9,
          13.6,
          29.26,
          52.52,
          35.58,
          11.87,
          23.1,
          53.68,
          30.69,
          26.65,
          19.88,
          12.61,
          19.52,
          36.26,
          20.68,
          26.28,
          18.72,
          14.0,
          12.53,
          42.93,
          17.76,
          12.9,
          14.92,
          18.78,
          13.06,
          15.86,
          14.8,
          28.27,
          16.55,
          12.66,
          23.67,
          27.11,
          13.18,
          16.21,
          25.28,
          15.25,
          14.12,
          14.05,
          13.9,
          13.97,
          14.12,
          13.98,
          13.21,
          21.68,
          23.76,
          13.82,
          13.69,
          13.95,
          15.4,
          20.24,
          14.17,
          20.15,
          37.61,
          43.64,
          19.08,
          14.3,
          12.67,
          15.46,
          19.18,
          22.97,
          27.89,
          14.7,
          13.37,
          13.9,
          14.37,
          16.15,
          17.2,
          14.23,
          14.28,
          14.62,
          14.57,
          14.28,
          14.49,
          14.64,
          14.56,
          14.36,
          17.31,
          15.04,
          13.91,
          13.73,
          14.85,
          14.42,
          22.52,
          44.16,
          16.27,
          14.8,
          14.77,
          13.99,
          17.03,
          20.09,
          22.74,
          14.89,
          14.42,
          15.75,
          15.0,
          14.28,
          14.65,
          15.44,
          15.23,
          15.19,
          13.59,
          13.43,
          12.76,
          13.07,
          14.33,
          16.46,
          14.12,
          14.78,
          14.3,
          14.29,
          14.22,
          15.88,
          18.19,
          15.74,
          16.08,
          23.87,
          17.86,
          18.07,
          17.35,
          20.4,
          22.34,
          19.63,
          19.71,
          20.34,
          20.87,
          21.34,
          24.96,
          26.88,
          22.98,
          24.1,
          27.7,
          29.14,
          25.4,
          26.03,
          26.38,
          26.86,
          27.96,
          29.14,
          29.46,
          28.65,
          28.39,
          30.28,
          32.67,
          33.53,
          31.84,
          33.02,
          34.58,
          33.68,
          33.66,
          36.2,
          37.09,
          37.92,
          37.61,
          37.06,
          37.21,
          37.41,
          42.83,
          43.14,
          43.16,
          43.77
        ]
      ]
    }
  }
}