{
  "entry": "10063",
  "last_updated": "2011-01-13",
  "number_of_revisions": "4",
  "histories": [
    {
      "x4_code": "(19710408C)",
      "free_txt": []
    },
    {
      "x4_code": "(19730509A)",
      "free_txt": [
        " BIB addition."
      ]
    },
    {
      "x4_code": "(19810601A)",
      "free_txt": [
        " Converted to REACTION formalism."
      ]
    },
    {
      "x4_code": "(19990907A)",
      "free_txt": [
        " Converted to new date formalism."
      ]
    },
    {
      "x4_code": "(20100930A)",
      "free_txt": [
        " VM: BIB updates. Subentry 002 updates;",
        "            some data moved to subentries 003,004."
      ]
    }
  ],
  "bib_record": {
    "title": "Fission cross sections from Pommard.",
    "authors": [
      {
        "name": "P.A.Seeger"
      }
    ],
    "institutes": [
      {
        "x4_code": "(1USALAS)",
        "free_txt": []
      }
    ],
    "references": [
      {
        "x4_code": "(R,LA-4420,138,197004)",
        "free_txt": [],
        "publication_year": "1970",
        "doi": null,
        "pointer": "0"
      }
    ],
    "facilities": []
  },
  "reactions": {
    "002": {
      "0": {
        "x4_code": "(95-AM-243(N,F),,SIG)",
        "children": [
          {
            "code": [
              "95-AM-243",
              [
                "N,F"
              ],
              ",,SIG"
            ],
            "type": null,
            "target": "95-AM-243",
            "process": "N,F",
            "sf49": ",,SIG",
            "sf4": null,
            "sf5": null,
            "sf6": "SIG",
            "sf7": null,
            "sf8": null,
            "sf9": null
          }
        ],
        "type": null,
        "free_text": "",
        "pointer": "0"
      }
    },
    "003": {
      "0": {
        "x4_code": "(95-AM-243(N,F),,SIG)",
        "children": [
          {
            "code": [
              "95-AM-243",
              [
                "N,F"
              ],
              ",,SIG"
            ],
            "type": null,
            "target": "95-AM-243",
            "process": "N,F",
            "sf49": ",,SIG",
            "sf4": null,
            "sf5": null,
            "sf6": "SIG",
            "sf7": null,
            "sf8": null,
            "sf9": null
          }
        ],
        "type": null,
        "free_text": "",
        "pointer": "0"
      }
    },
    "004": {
      "0": {
        "x4_code": "(95-AM-243(N,F),,SIG)",
        "children": [
          {
            "code": [
              "95-AM-243",
              [
                "N,F"
              ],
              ",,SIG"
            ],
            "type": null,
            "target": "95-AM-243",
            "process": "N,F",
            "sf49": ",,SIG",
            "sf4": null,
            "sf5": null,
            "sf6": "SIG",
            "sf7": null,
            "sf8": null,
            "sf9": null
          }
        ],
        "type": null,
        "free_text": "",
        "pointer": "0"
      }
    }
  },
  "data_tables": {
    "001": {
      "common": null
    },
    "002": {
      "common": {
        "heads": [
          "ERR-SYS",
          "EN-NRM",
          "MONIT",
          "MONIT-ERR"
        ],
        "units": [
          "PER-CENT",
          "EV",
          "B",
          "B"
        ],
        "data": [
          [
            4.4
          ],
          [
            0.0253
          ],
          [
            940.3
          ],
          [
            1.6
          ]
        ]
      },
      "data": {
        "heads": [
          "EN",
          "DATA",
          "ERR-T"
        ],
        "units": [
          "EV",
          "B",
          "PER-CENT"
        ],
        "data": [
          [
            48.9011,
            48.9454,
            48.9898,
            49.0342,
            49.0787,
            49.1233,
            49.1679,
            49.2126,
            49.2573,
            49.3021,
            49.347,
            49.3919,
            49.4369,
            49.482,
            49.5271,
            49.5722,
            49.6175,
            49.6628,
            49.7081,
            49.7535,
            49.799,
            49.8445,
            49.8902,
            49.9358,
            49.9815,
            50.0273,
            50.0732,
            50.1191,
            50.1651,
            50.2111,
            50.2572,
            50.3034,
            50.3496,
            50.3959,
            50.4423,
            50.4887,
            50.5352,
            50.5818,
            50.6284,
            50.6751,
            50.7218,
            50.7686,
            50.8155,
            50.8624,
            50.9094,
            50.9565,
            51.0036,
            51.0508,
            51.0981,
            51.1454,
            51.1928,
            51.2403,
            51.2878,
            51.3354,
            51.3831,
            51.4308,
            51.4786,
            51.5265,
            51.5744,
            51.6224,
            51.6704,
            51.7186,
            51.7668,
            51.815,
            51.8633,
            51.9117,
            51.9602,
            52.0087,
            52.0573,
            52.106,
            52.1547,
            52.2035,
            52.2524,
            52.3014,
            52.3504,
            52.3994,
            52.4486,
            52.4978,
            52.5471,
            52.5965,
            52.6459,
            52.6954,
            52.7449,
            52.7946,
            52.8443,
            52.894,
            52.9439,
            52.9938,
            53.0438,
            53.0938,
            53.144,
            53.1942,
            53.2444,
            53.2948,
            53.3452,
            53.3957,
            53.4462,
            53.4968,
            53.5475,
            53.5983,
            53.6491,
            53.7,
            53.751,
            53.8021,
            53.8532,
            53.9044,
            53.9557,
            54.007,
            54.0585,
            54.11,
            54.1615,
            54.2132,
            54.2649,
            54.3167,
            54.3685,
            54.4205,
            54.4725,
            54.5246,
            54.5767,
            54.629,
            54.6813,
            54.7337,
            54.7861,
            54.8387,
            54.8913,
            54.944,
            54.9967,
            55.0496,
            55.1025,
            55.1555,
            55.2085,
            55.2617,
            55.3149,
            55.3682,
            55.4216,
            55.475,
            55.5286,
            55.5822,
            55.6358,
            55.6896,
            55.7434,
            55.7974,
            55.8514,
            55.9054,
            55.9596,
            56.0138,
            56.0681,
            56.1225,
            56.177,
            56.2315,
            56.2861,
            56.3408,
            56.3956,
            56.4505,
            56.5054,
            56.5605,
            56.6156,
            56.6707,
            56.726,
            56.7814,
            56.8368,
            56.8923,
            56.9479,
            57.0036,
            57.0593,
            57.1151,
            57.1711,
            57.2271,
            57.2831,
            57.3393,
            57.3955,
            57.4519,
            57.5083,
            57.5648,
            57.6213,
            57.678,
            57.7347,
            57.7916,
            57.8485,
            57.9055,
            57.9626,
            58.0197,
            58.077,
            58.1343,
            58.1917,
            58.2492,
            58.3068,
            58.3645,
            58.4222,
            58.4801,
            58.538,
            58.596,
            58.6541,
            58.7123,
            58.7706,
            58.8289,
            58.8874,
            58.9459,
            59.0045,
            59.0632,
            59.122,
            59.1809,
            59.2399,
            59.2989,
            59.3581,
            59.4173,
            59.4767,
            59.5361,
            59.5956,
            59.6552,
            59.7148,
            59.7746,
            59.8345,
            59.8944,
            59.9544,
            60.0146,
            60.0748,
            60.1351,
            60.1955,
            60.256,
            60.3166,
            60.3773,
            60.438,
            60.4989,
            60.5598,
            60.6209,
            60.682,
            60.7432,
            60.8045,
            60.8659,
            60.9274,
            60.989,
            61.0507,
            61.1125,
            61.1744,
            61.2364,
            61.2984,
            61.3606,
            61.4228,
            61.4852,
            61.5476,
            61.6102,
            61.6728,
            61.7355,
            61.7983,
            61.8613,
            61.9243,
            61.9874,
            62.0506,
            62.1139,
            62.1773,
            62.2408,
            62.3044,
            62.3681,
            62.4319,
            62.4958,
            62.5597,
            62.6238,
            62.688,
            62.7523,
            62.8167,
            62.8811,
            62.9457,
            63.0104,
            63.0752,
            63.14,
            63.205,
            63.2701,
            63.3353,
            63.4006,
            63.4659,
            63.5314,
            63.597,
            63.6627,
            63.7284,
            63.7943,
            63.8603,
            63.9264,
            63.9926,
            64.0589,
            64.1253,
            64.1918,
            64.2584,
            64.3251,
            64.3919,
            64.4588,
            64.5258,
            64.593,
            64.6602,
            64.7275,
            64.795,
            64.8625,
            64.9301,
            64.9979,
            65.0658,
            65.1337,
            65.2018,
            65.27,
            65.3383,
            65.4066,
            65.4752,
            65.5438,
            65.6125,
            65.6813,
            65.7502,
            65.8193,
            65.8884,
            65.9577,
            66.027,
            66.0965,
            66.1661,
            66.2358,
            66.3056,
            66.3755,
            66.4455,
            66.5157,
            66.5859,
            66.6563,
            66.7267,
            66.7973,
            66.868,
            66.9388,
            67.0097,
            67.0808,
            67.1519,
            67.2232,
            67.2945,
            67.366,
            67.4376,
            67.5093,
            67.5811,
            67.6531,
            67.7251,
            67.7973,
            67.8696,
            67.942,
            68.0145,
            68.0871,
            68.1599,
            68.2327,
            68.3057,
            68.3788,
            68.452,
            68.5253,
            68.5988,
            68.6723,
            68.746,
            68.8198,
            68.8938,
            68.9678,
            69.042,
            69.1162,
            69.1906,
            69.2652,
            69.3398,
            69.4145,
            69.4894,
            69.5644,
            69.6396,
            69.7148,
            69.7902,
            69.8656,
            69.9413,
            70.017,
            70.0928,
            70.1688,
            70.2449,
            70.3212,
            70.3975,
            70.474,
            70.5506,
            70.6273,
            70.7041,
            70.7811,
            70.8582,
            70.9354,
            71.0128,
            71.0903,
            71.1679,
            71.2456,
            71.3235,
            71.4014,
            71.4796,
            71.5578,
            71.6362,
            71.7147,
            71.7933,
            71.872,
            71.9509,
            72.0299,
            72.1091,
            72.1884,
            72.2678,
            72.3473,
            72.427,
            72.5068,
            72.5867,
            72.6668,
            72.747,
            72.8273,
            72.9077,
            72.9883,
            73.0691,
            73.1499,
            73.2309,
            73.312,
            73.3933,
            73.4747,
            73.5562,
            73.6379,
            73.7197,
            73.8017,
            73.8837,
            73.966,
            74.0483,
            74.1308,
            74.2134,
            74.2962,
            74.3791,
            74.4621,
            74.5453,
            74.6286,
            74.7121,
            74.7957,
            74.8794,
            74.9633,
            75.0473,
            75.1315,
            75.2158,
            75.3002,
            75.3848,
            75.4696,
            75.5544,
            75.6395,
            75.7246,
            75.8099,
            75.8954,
            75.9809,
            76.0667,
            76.1526,
            76.2386,
            76.3248,
            76.4111,
            76.4975,
            76.5841,
            76.6709,
            76.7578,
            76.8448,
            76.932,
            77.0194,
            77.1069,
            77.1945,
            77.2823,
            77.3703,
            77.4584,
            77.5466,
            77.635,
            77.7235,
            77.8122,
            77.9011,
            77.9901,
            78.0792,
            78.1685,
            78.258,
            78.3476,
            78.4374,
            78.5273,
            78.6174,
            78.7076,
            78.798,
            78.8885,
            78.9792,
            79.0701,
            79.1611,
            79.2522,
            79.3436,
            79.435,
            79.5267,
            79.6185,
            79.7104,
            79.8025,
            79.8948,
            79.9872,
            80.0798,
            80.1726,
            80.2655,
            80.3586,
            80.4518,
            80.5452,
            80.6388,
            80.7325,
            80.8264,
            80.9204,
            81.0147,
            81.109,
            81.2036,
            81.2983,
            81.3932,
            81.4882,
            81.5834,
            81.6788,
            81.7743,
            81.87,
            81.9659,
            82.062,
            82.1582,
            82.2546,
            82.3511,
            82.4478,
            82.5447,
            82.6418,
            82.739,
            82.8364,
            82.934,
            83.0318,
            83.1297,
            83.2278,
            83.3261,
            83.4245,
            83.5231,
            83.6219,
            83.7209,
            83.82,
            83.9193,
            84.0188,
            84.1185,
            84.2183,
            84.3184,
            84.4186,
            84.519,
            84.6195,
            84.7203,
            84.8212,
            84.9223,
            85.0236,
            85.125,
            85.2267,
            85.3285,
            85.4305,
            85.5327,
            85.6351,
            85.7376,
            85.8404,
            85.9433,
            86.0464,
            86.1497,
            86.2532,
            86.3568,
            86.4607,
            86.5647,
            86.669,
            86.7734,
            86.878,
            86.9828,
            87.0878,
            87.1929,
            87.2983,
            87.4039,
            87.5096,
            87.6155,
            87.7217,
            87.828,
            87.9345,
            88.0412,
            88.1481,
            88.2552,
            88.3625,
            88.47,
            88.5777,
            88.6856,
            88.7936,
            88.9019,
            89.0104,
            89.1191,
            89.2279,
            89.337,
            89.4463,
            89.5557,
            89.6654,
            89.7753,
            89.8853,
            89.9956,
            90.1061,
            90.2168,
            90.3277,
            90.4387,
            90.55,
            90.6615,
            90.7732,
            90.8852,
            90.9973,
            91.1096,
            91.2221,
            91.3349,
            91.4478,
            91.561,
            91.6743,
            91.7879,
            91.9017,
            92.0157,
            92.1299,
            92.2444,
            92.359,
            92.4739,
            92.5889,
            92.7042,
            92.8197,
            92.9354,
            93.0513,
            93.1675,
            93.2838,
            93.4004,
            93.5172,
            93.6342,
            93.7515,
            93.8689,
            93.9866,
            94.1045,
            94.2226,
            94.341,
            94.4595,
            94.5783,
            94.6973,
            94.8166,
            94.936,
            95.0557,
            95.1756,
            95.2958,
            95.4161,
            95.5367,
            95.6575,
            95.7786,
            95.8999,
            96.0214,
            96.1431,
            96.2651,
            96.3873,
            96.5097,
            96.6324,
            96.7553,
            96.8784,
            97.0018,
            97.1254,
            97.2493,
            97.3734,
            97.4977,
            97.6222,
            97.747,
            97.8721,
            97.9973,
            98.1228,
            98.2486,
            98.3746,
            98.5008,
            98.6273,
            98.754,
            98.881,
            99.0082,
            99.1357,
            99.2634,
            99.3913,
            99.5195,
            99.648,
            99.7767,
            99.9056,
            100.035,
            100.164,
            100.294,
            100.424,
            100.554,
            100.685,
            100.815,
            100.946,
            101.077,
            101.209,
            101.341,
            101.473,
            101.605,
            101.737,
            101.87,
            102.003,
            102.136,
            102.27,
            102.404,
            102.538,
            102.672,
            102.807,
            102.942,
            103.077,
            103.212,
            103.348,
            103.484,
            103.62,
            103.756,
            103.893,
            104.03,
            104.167,
            104.305,
            104.443,
            104.581,
            104.719,
            104.858,
            104.997,
            105.136,
            105.275,
            105.415,
            105.555,
            105.695,
            105.836,
            105.977,
            106.118,
            106.259,
            106.401,
            106.543,
            106.685,
            106.828,
            106.971,
            107.114,
            107.257,
            107.401,
            107.545,
            107.689,
            107.834,
            107.978,
            108.124,
            108.269,
            108.415,
            108.561,
            108.707,
            108.854,
            109.001,
            109.148,
            109.295,
            109.443,
            109.591,
            109.74,
            109.888,
            110.037,
            110.187,
            110.336,
            110.486,
            110.636,
            110.787,
            110.938,
            111.089,
            111.24,
            111.392,
            111.544,
            111.697,
            111.849,
            112.002,
            112.156,
            112.309,
            112.463,
            112.617,
            112.772,
            112.927,
            113.082,
            113.238,
            113.394,
            113.55,
            113.706,
            113.863,
            114.02,
            114.178,
            114.336,
            114.494,
            114.652,
            114.811,
            114.97,
            115.13,
            115.289,
            115.449,
            115.61,
            115.771,
            115.932,
            116.093,
            116.255,
            116.417,
            116.58,
            116.742,
            116.906,
            117.069,
            117.233,
            117.397,
            117.562,
            117.726,
            117.892,
            118.057,
            118.223,
            118.389,
            118.556,
            118.723,
            118.89,
            119.058,
            119.226,
            119.394,
            119.563,
            119.732,
            119.902,
            120.071,
            120.242,
            120.412,
            120.583,
            120.754,
            120.926,
            121.098,
            121.27,
            121.443,
            121.616,
            121.789,
            121.963,
            122.137,
            122.312,
            122.487,
            122.662,
            122.838,
            123.014,
            123.191,
            123.367,
            123.545,
            123.722,
            123.9,
            124.079,
            124.257,
            124.436,
            124.616,
            124.796,
            124.976,
            125.157,
            125.338,
            125.519,
            125.701,
            125.884,
            126.066,
            126.249,
            126.433,
            126.617,
            126.801,
            126.985,
            127.17,
            127.356,
            127.542,
            127.728,
            127.915,
            128.102,
            128.289,
            128.477,
            128.666,
            128.854,
            129.044,
            129.233,
            129.423,
            129.613,
            129.804,
            129.996,
            130.187,
            130.379,
            130.572,
            130.765,
            130.958,
            131.152,
            131.346,
            131.541,
            131.736,
            131.931,
            132.127,
            132.324,
            132.521,
            132.718,
            132.916,
            133.114,
            133.312,
            133.511,
            133.711,
            133.911,
            134.111,
            134.312,
            134.513,
            134.715,
            134.917,
            135.12,
            135.323,
            135.527,
            135.731,
            135.935,
            136.14,
            136.345,
            136.551,
            136.758,
            136.964,
            137.172,
            137.379,
            137.588,
            137.796,
            138.006,
            138.215,
            138.425,
            138.636,
            138.847,
            139.059,
            139.271,
            139.483,
            139.696,
            139.91,
            140.124,
            140.338,
            140.553,
            140.768,
            140.984,
            141.201,
            141.418,
            141.635,
            141.853,
            142.072,
            142.291,
            142.51,
            142.73,
            142.951,
            143.172,
            143.393,
            143.615,
            143.838,
            144.061,
            144.284,
            144.508,
            144.733,
            144.958,
            145.184,
            145.41,
            145.637,
            145.864,
            146.092,
            146.32,
            146.549,
            146.778,
            147.008,
            147.239,
            147.47,
            147.701,
            147.933,
            148.166,
            148.399,
            148.633,
            148.867,
            149.102,
            149.337,
            149.573,
            149.81,
            150.047,
            150.285,
            150.523,
            150.761,
            151.001,
            151.241,
            151.481,
            151.722,
            151.964,
            152.206,
            152.449,
            152.692,
            152.936,
            153.181,
            153.426,
            153.672,
            153.918,
            154.165,
            154.412,
            154.66,
            154.909,
            155.158,
            155.408,
            155.659,
            155.91,
            156.161,
            156.414,
            156.666,
            156.92,
            157.174,
            157.429,
            157.684,
            157.94,
            158.197,
            158.454,
            158.712,
            158.97,
            159.23,
            159.489,
            159.75,
            160.011,
            160.272,
            160.535,
            160.798,
            161.061,
            161.326,
            161.591,
            161.856,
            162.122,
            162.389,
            162.657,
            162.925,
            163.194,
            163.463,
            163.733,
            164.004,
            164.276,
            164.548,
            164.821,
            165.094,
            165.369,
            165.644,
            165.919,
            166.195,
            166.472,
            166.75,
            167.028,
            167.308,
            167.587,
            167.868,
            168.149,
            168.431,
            168.713,
            168.997,
            169.281,
            169.565,
            169.851,
            170.137,
            170.424,
            170.711,
            171.0,
            171.289,
            171.579,
            171.869,
            172.16,
            172.452,
            172.745,
            173.039,
            173.333,
            173.628,
            173.924,
            174.22,
            174.517,
            174.816,
            175.114,
            175.414,
            175.714,
            176.015,
            176.317,
            176.62,
            176.923,
            177.227,
            177.532,
            177.838,
            178.145,
            178.452,
            178.76,
            179.069,
            179.379,
            179.689,
            180.001,
            180.313,
            180.626,
            180.94,
            181.254,
            181.57,
            181.886,
            182.203,
            182.521,
            182.84,
            183.159,
            183.48,
            183.801,
            184.123,
            184.446,
            184.77,
            185.095,
            185.42,
            185.746,
            186.074,
            186.402,
            186.731,
            187.06,
            187.391,
            187.723,
            188.055,
            188.389,
            188.723,
            189.058,
            189.394,
            189.731,
            190.069,
            190.407,
            190.747,
            191.087,
            191.429,
            191.771,
            192.114,
            192.459,
            192.804,
            193.15,
            193.497,
            193.845,
            194.193,
            194.543,
            194.894,
            195.246,
            195.598,
            195.952,
            196.306,
            196.662,
            197.018,
            197.376,
            197.734,
            198.094,
            198.454,
            198.815,
            199.178,
            199.541,
            199.905,
            200.271,
            200.637,
            201.004,
            201.373,
            201.742,
            202.112,
            202.484,
            202.856,
            203.229,
            203.604,
            203.979,
            204.356,
            204.734,
            205.112,
            205.492,
            205.873,
            206.254,
            206.637,
            207.021,
            207.406,
            207.792,
            208.179,
            208.567,
            208.957,
            209.347,
            209.739,
            210.131,
            210.525,
            210.92,
            211.316,
            211.713,
            212.111,
            212.51,
            212.91,
            213.312,
            213.714,
            214.118,
            214.523,
            214.929,
            215.337,
            215.745,
            216.154,
            216.565,
            216.977,
            217.39,
            217.804,
            218.22,
            218.636,
            219.054,
            219.473,
            219.893,
            220.315,
            220.737,
            221.161,
            221.586,
            222.013,
            222.44,
            222.869,
            223.299,
            223.73,
            224.163,
            224.596,
            225.031,
            225.468,
            225.905,
            226.344,
            226.784,
            227.225,
            227.668,
            228.112,
            228.557,
            229.004,
            229.452,
            229.901,
            230.351,
            230.803,
            231.256,
            231.711,
            232.167,
            232.624,
            233.082,
            233.542,
            234.003,
            234.466,
            234.93,
            235.395,
            235.862,
            236.33,
            236.8,
            237.271,
            237.743,
            238.217,
            238.692,
            239.168,
            239.646,
            240.126,
            240.607,
            241.089,
            241.573,
            242.058,
            242.545,
            243.033,
            243.522,
            244.013,
            244.506,
            245.0,
            245.496,
            245.993,
            246.491,
            246.991,
            247.493,
            247.996,
            248.501,
            249.007,
            249.515,
            250.024,
            250.535,
            251.048,
            251.562,
            252.077,
            252.594,
            253.113,
            253.633,
            254.155,
            254.679,
            255.204,
            255.731,
            256.26,
            256.79,
            257.321,
            257.855,
            258.39,
            258.927,
            259.465,
            260.005,
            260.547,
            261.09,
            261.635,
            262.182,
            262.731,
            263.281,
            263.833,
            264.387,
            264.943,
            265.5,
            266.059,
            266.62,
            267.182,
            267.747,
            268.313,
            268.881,
            269.45,
            270.022,
            270.595,
            271.17,
            271.747,
            272.326,
            272.907,
            273.49,
            274.074,
            274.66,
            275.248,
            275.839,
            276.431,
            277.024,
            277.62,
            278.218,
            278.818,
            279.419,
            280.023,
            280.628,
            281.236,
            281.845,
            282.456,
            283.07,
            283.685,
            284.303,
            284.922,
            285.543,
            286.167,
            286.792,
            287.42,
            288.05,
            288.681,
            289.315,
            289.951,
            290.589,
            291.229,
            291.871,
            292.516,
            293.162,
            293.811,
            294.461,
            295.114,
            295.769,
            296.427,
            297.086,
            297.748,
            298.411,
            299.078,
            299.746,
            300.416,
            301.089,
            301.764,
            302.442,
            303.121,
            303.803,
            304.487,
            305.174,
            305.863,
            306.554,
            307.247,
            307.943,
            308.642,
            309.342,
            310.045,
            310.751,
            311.458,
            312.169,
            312.881,
            313.596,
            314.314,
            315.034,
            315.756,
            316.481,
            317.209,
            317.939,
            318.671,
            319.406,
            320.144,
            320.884,
            321.627,
            322.372,
            323.12,
            323.87,
            324.623,
            325.379,
            326.137,
            326.898,
            327.662,
            328.428,
            329.197,
            329.969,
            330.744,
            331.521,
            332.301,
            333.083,
            333.869,
            334.657,
            335.448,
            336.242,
            337.038,
            337.838,
            338.64,
            339.445,
            340.253,
            341.064,
            341.878,
            342.695,
            343.515,
            344.337,
            345.163,
            345.991,
            346.823,
            347.657,
            348.495,
            349.335,
            350.179,
            351.026,
            351.875,
            352.728,
            353.584,
            354.443,
            355.305,
            356.171,
            357.039,
            357.911,
            358.786,
            359.664,
            360.545,
            361.43,
            362.317,
            363.208,
            364.103,
            365.0,
            365.901,
            366.806,
            367.713,
            368.624,
            369.539,
            370.457,
            371.378,
            372.302,
            373.231,
            374.162,
            375.097,
            376.036,
            376.978,
            377.924,
            378.873,
            379.826,
            380.782,
            381.742,
            382.706,
            383.673,
            384.644,
            385.619,
            386.597,
            387.579,
            388.565,
            389.554,
            390.548,
            391.545,
            392.546,
            393.551,
            394.56,
            395.572,
            396.589,
            397.609,
            398.633,
            399.662,
            400.694,
            401.73,
            402.77,
            403.815,
            404.863,
            405.916,
            406.972,
            408.033,
            409.098,
            410.167,
            411.24,
            412.318,
            413.399,
            414.485,
            415.575,
            416.67,
            417.769,
            418.872,
            419.98,
            421.092,
            422.208,
            423.329,
            424.454,
            425.584,
            426.718,
            427.857,
            429.001,
            430.149,
            431.301,
            432.458,
            433.62,
            434.787,
            435.958,
            437.134,
            438.315,
            439.501,
            440.691,
            441.886,
            443.086,
            444.291,
            445.501,
            446.716,
            447.936,
            449.161,
            450.39,
            451.625,
            452.865,
            454.11,
            455.361,
            456.616,
            457.877,
            459.143,
            460.414,
            461.69,
            462.972,
            464.259,
            465.551,
            466.849,
            468.152,
            469.461,
            470.775,
            472.094,
            473.42,
            474.751,
            476.087,
            477.429,
            478.777,
            480.13,
            481.489,
            482.854,
            484.225,
            485.602,
            486.984,
            488.373,
            489.767,
            491.167,
            492.574,
            493.986,
            495.405,
            496.829,
            498.26,
            499.697,
            501.14,
            502.589,
            504.045,
            505.507,
            506.976,
            508.45,
            509.932,
            511.419,
            512.913,
            514.414,
            515.922,
            517.436,
            518.956,
            520.484,
            522.018,
            523.559,
            525.106,
            526.661,
            528.223,
            529.791,
            531.366,
            532.949,
            534.538,
            536.135,
            537.739,
            539.35,
            540.968,
            542.594,
            544.227,
            545.867,
            547.515,
            549.17,
            550.833,
            552.503,
            554.181,
            555.866,
            557.559,
            559.26,
            560.969,
            562.686,
            564.41,
            566.143,
            567.883,
            569.631,
            571.388,
            573.152,
            574.925,
            576.706,
            578.496,
            580.293,
            582.099,
            583.914,
            585.737,
            587.568,
            589.408,
            591.257,
            593.114,
            594.981,
            596.856,
            598.74,
            600.633,
            602.534,
            604.445,
            606.365,
            608.294,
            610.233,
            612.18,
            614.137,
            616.104,
            618.079,
            620.065,
            622.06,
            624.064,
            626.078,
            628.102,
            630.136,
            632.18,
            634.233,
            636.297,
            638.371,
            640.455,
            642.549,
            644.653,
            646.768,
            648.893,
            651.029,
            653.175,
            655.332,
            657.499,
            659.677,
            661.867,
            664.067,
            666.278,
            668.5,
            670.733,
            672.977,
            675.233,
            677.5,
            679.778,
            682.068,
            684.37,
            686.683,
            689.008,
            691.345,
            693.693,
            696.054,
            698.427,
            700.811,
            703.208,
            705.618,
            708.04,
            710.474,
            712.921,
            715.38,
            717.852,
            720.337,
            722.835,
            725.346,
            727.87,
            730.408,
            732.958,
            735.522,
            738.1,
            740.69,
            743.295,
            745.913,
            748.546,
            751.192,
            753.852,
            756.526,
            759.215,
            761.918,
            764.636,
            767.367,
            770.114,
            772.875,
            775.652,
            778.443,
            781.249,
            784.071,
            786.908,
            789.76,
            792.628,
            795.511,
            798.41,
            801.325,
            804.256,
            807.203,
            810.167,
            813.146,
            816.143,
            819.155,
            822.185,
            825.231,
            828.294,
            831.374,
            834.472,
            837.587,
            840.719,
            843.869,
            847.036,
            850.222,
            853.425,
            856.647,
            859.887,
            863.145,
            866.422,
            869.717,
            873.032,
            876.365,
            879.717,
            883.089,
            886.48,
            889.891,
            893.321,
            896.771,
            899.617
          ],
          [
            0.39757,
            0.32864,
            0.37606,
            0.71619,
            0.53501,
            0.44545,
            0.55021,
            0.61797,
            0.72033,
            0.71533,
            0.73501,
            0.53968,
            0.39798,
            0.47343,
            0.48956,
            0.43395,
            0.4055,
            0.32721,
            0.26428,
            0.1953,
            0.46874,
            0.47413,
            0.32104,
            0.53632,
            0.50861,
            0.25711,
            0.35261,
            0.19342,
            0.29743,
            0.096149,
            0.0034776,
            -0.10724,
            0.19096,
            0.33368,
            0.29423,
            0.33517,
            0.2895,
            0.33302,
            0.21025,
            0.27167,
            0.381,
            0.29574,
            0.25264,
            0.37188,
            0.33804,
            0.29601,
            0.4637,
            0.49162,
            0.51973,
            0.60148,
            0.67803,
            0.77172,
            0.77616,
            1.0039,
            0.88204,
            0.39426,
            0.46904,
            0.72691,
            0.70191,
            0.57719,
            0.44095,
            0.38229,
            0.27272,
            0.23617,
            0.2701,
            0.23518,
            0.18663,
            0.26718,
            0.23026,
            0.25712,
            0.24906,
            0.3633,
            0.25524,
            0.21761,
            0.22456,
            0.34361,
            0.43807,
            0.27064,
            0.26578,
            0.28117,
            0.42542,
            0.47623,
            0.42082,
            0.28823,
            0.3507,
            0.34784,
            0.34955,
            0.4718,
            0.53848,
            0.5321,
            0.38429,
            0.39161,
            0.3211,
            0.32942,
            0.36894,
            0.27739,
            0.28813,
            0.23775,
            0.23403,
            0.23496,
            0.2961,
            0.36748,
            0.32056,
            0.38778,
            0.47928,
            0.31507,
            0.33935,
            0.39773,
            0.34139,
            0.39205,
            0.39738,
            0.48569,
            0.29732,
            0.33366,
            0.32395,
            0.38733,
            0.34581,
            0.49114,
            0.53188,
            0.44538,
            0.48582,
            0.36471,
            0.30395,
            0.25943,
            0.17601,
            0.1406,
            0.15297,
            0.22894,
            0.2439,
            0.20889,
            0.20745,
            0.20427,
            0.29519,
            0.35357,
            0.27341,
            0.28803,
            0.44086,
            0.60204,
            0.82854,
            0.66943,
            0.81267,
            0.91136,
            0.84851,
            0.83028,
            0.75228,
            0.62694,
            0.51977,
            0.3502,
            0.25243,
            0.2133,
            0.16042,
            0.12271,
            0.14943,
            -0.0054775,
            0.13625,
            0.14449,
            0.095904,
            0.11744,
            0.062819,
            0.078422,
            0.17301,
            0.094375,
            0.15772,
            0.084849,
            0.11015,
            0.17744,
            0.30416,
            0.17807,
            0.2152,
            0.14834,
            0.12437,
            0.15783,
            0.10271,
            0.098683,
            0.096632,
            0.094345,
            0.047527,
            0.098238,
            0.04753,
            0.12011,
            0.090096,
            0.14375,
            0.072613,
            0.13725,
            0.10415,
            0.14082,
            0.1021,
            0.1721,
            0.13761,
            0.15452,
            0.21084,
            0.21124,
            0.19826,
            0.1881,
            0.12539,
            0.18845,
            0.20678,
            0.19304,
            0.18812,
            0.19494,
            0.24075,
            0.21712,
            0.22538,
            0.16643,
            0.13511,
            0.11999,
            0.12463,
            0.12958,
            0.17597,
            0.16513,
            0.1988,
            0.22978,
            0.26816,
            0.25698,
            0.23901,
            0.20878,
            0.23323,
            0.21092,
            0.13978,
            0.19237,
            0.2031,
            0.14058,
            0.12393,
            0.12461,
            0.14449,
            0.17589,
            0.24233,
            0.2991,
            0.25245,
            0.28844,
            0.58232,
            0.67616,
            0.69343,
            0.73536,
            0.72074,
            0.63753,
            0.56435,
            0.41489,
            0.21374,
            0.11203,
            0.086181,
            0.091066,
            0.066265,
            0.083442,
            0.17481,
            0.1403,
            0.078776,
            0.093759,
            0.087344,
            0.051265,
            0.086086,
            0.090298,
            0.076584,
            0.12513,
            0.070176,
            0.059778,
            0.095052,
            0.070464,
            0.11658,
            0.10741,
            0.10652,
            0.11074,
            0.099904,
            0.13223,
            0.10048,
            0.17346,
            0.14289,
            0.11968,
            0.077039,
            0.077358,
            0.08001,
            -0.0121,
            0.072654,
            0.080494,
            0.058304,
            0.053533,
            0.054828,
            0.045302,
            0.061176,
            0.054304,
            0.11334,
            0.049679,
            0.03773,
            0.04425,
            0.037336,
            0.061584,
            0.067595,
            0.080729,
            0.098179,
            0.076433,
            0.090848,
            0.070173,
            0.091252,
            0.087221,
            0.083621,
            0.075115,
            0.073726,
            0.068427,
            0.066959,
            0.060168,
            0.075176,
            0.095127,
            0.072171,
            0.081705,
            0.10364,
            0.16167,
            0.19713,
            0.25401,
            0.35415,
            0.45945,
            0.51633,
            0.52089,
            0.40151,
            0.40198,
            0.33524,
            0.18582,
            0.093026,
            0.08954,
            0.071952,
            0.088836,
            0.10015,
            0.10263,
            0.098072,
            0.13922,
            0.15647,
            0.19561,
            0.23523,
            0.23775,
            0.20922,
            0.19319,
            0.16425,
            0.14323,
            0.15793,
            0.24994,
            0.30665,
            0.27484,
            0.32852,
            0.32815,
            0.29761,
            0.23568,
            0.18606,
            0.20824,
            0.21323,
            0.24492,
            0.33152,
            0.36786,
            0.35978,
            0.33824,
            0.27341,
            0.14316,
            0.098739,
            0.07184,
            0.089717,
            0.13306,
            0.13461,
            0.26099,
            0.34879,
            0.44708,
            0.52239,
            0.5143,
            0.39517,
            0.27501,
            0.20781,
            0.19163,
            0.20218,
            0.22802,
            0.23641,
            0.22446,
            0.16605,
            0.11647,
            0.082483,
            0.065555,
            0.048811,
            0.04924,
            0.0501,
            0.049073,
            0.05617,
            0.05008,
            0.055846,
            0.06392,
            0.06746,
            0.073361,
            0.086159,
            0.097266,
            0.084732,
            0.091543,
            0.12077,
            0.16346,
            0.22255,
            0.26555,
            0.32497,
            0.31463,
            0.29153,
            0.25336,
            0.19619,
            0.1667,
            0.25269,
            0.43697,
            0.58691,
            0.64554,
            0.62152,
            0.50231,
            0.33361,
            0.21399,
            0.12863,
            0.076822,
            0.057711,
            0.047196,
            0.045235,
            0.048704,
            0.064229,
            0.080567,
            0.099472,
            0.10594,
            0.097769,
            0.083669,
            0.082708,
            0.085558,
            0.093278,
            0.090284,
            0.057465,
            0.073034,
            0.10236,
            0.15226,
            0.1601,
            0.18124,
            0.20847,
            0.34512,
            0.46126,
            0.5778,
            0.6161,
            0.59488,
            0.48113,
            0.34102,
            0.17012,
            0.087775,
            0.053061,
            0.039821,
            0.03634,
            0.040281,
            0.046918,
            0.062142,
            0.065084,
            0.073287,
            0.07737,
            0.079847,
            0.081753,
            0.095305,
            0.10291,
            0.10998,
            0.12273,
            0.19691,
            0.36019,
            0.38246,
            0.45141,
            0.49346,
            0.50872,
            0.46776,
            0.21955,
            0.13897,
            0.084961,
            0.076565,
            0.080559,
            0.069029,
            0.044801,
            0.035599,
            0.044645,
            0.04888,
            0.087501,
            0.033278,
            0.027398,
            0.038659,
            0.03253,
            0.022842,
            0.032369,
            0.038088,
            0.042559,
            0.037717,
            0.052507,
            0.042644,
            0.047519,
            0.068031,
            0.07212,
            0.062829,
            0.068302,
            0.079124,
            0.10419,
            0.14462,
            0.19037,
            0.2661,
            0.34944,
            0.43331,
            0.55871,
            0.61771,
            0.62464,
            0.50838,
            0.24624,
            0.11279,
            0.072904,
            0.042443,
            0.031932,
            0.045693,
            0.037662,
            0.039536,
            0.037486,
            0.042243,
            0.039585,
            0.047906,
            0.05316,
            0.05039,
            0.080446,
            0.099437,
            0.11523,
            0.14241,
            0.16086,
            0.19288,
            0.22237,
            0.26822,
            0.3013,
            0.21861,
            0.22918,
            0.19311,
            0.19891,
            0.24965,
            0.25982,
            0.27485,
            0.27086,
            0.26146,
            0.20822,
            0.16768,
            0.17433,
            0.1801,
            0.1992,
            0.242,
            0.72749,
            1.125,
            1.3236,
            1.3968,
            1.5472,
            1.2165,
            1.5005,
            0.46768,
            0.37727,
            0.18826,
            0.13609,
            0.12973,
            0.19844,
            0.26923,
            0.32512,
            0.34796,
            0.3436,
            0.32708,
            0.2084,
            0.084219,
            0.046801,
            0.032143,
            0.034322,
            0.045985,
            0.038373,
            0.033683,
            0.050044,
            0.052425,
            0.080573,
            0.09603,
            0.10628,
            0.11572,
            0.1383,
            0.16573,
            0.21098,
            0.30473,
            0.34359,
            0.42177,
            0.43819,
            0.25271,
            0.18031,
            0.082853,
            0.042888,
            0.038017,
            0.052912,
            0.085188,
            0.15946,
            0.26105,
            0.32426,
            0.33663,
            0.33766,
            0.31189,
            0.27232,
            0.14477,
            0.14913,
            0.18788,
            0.26633,
            0.27961,
            0.27677,
            0.25187,
            0.18159,
            0.089949,
            0.059514,
            0.051172,
            0.039754,
            0.026673,
            0.028814,
            0.034375,
            0.03778,
            0.0434,
            0.045742,
            0.050431,
            0.055021,
            0.042686,
            0.040624,
            0.043922,
            0.049318,
            0.053535,
            0.06081,
            0.065441,
            0.079504,
            0.11775,
            0.17058,
            0.20218,
            0.8609,
            1.2937,
            1.0542,
            1.4297,
            1.4884,
            1.414,
            0.14974,
            0.15862,
            0.16197,
            0.098524,
            0.075518,
            0.065294,
            0.066772,
            0.072986,
            0.067947,
            0.069016,
            0.055177,
            0.041169,
            0.040406,
            0.03357,
            0.04021,
            0.082823,
            0.14698,
            0.22493,
            0.33022,
            0.34616,
            0.34735,
            0.34966,
            0.29273,
            0.16126,
            0.078899,
            0.056823,
            0.059713,
            0.069316,
            0.073089,
            0.078479,
            0.078587,
            0.069085,
            0.060677,
            0.049617,
            0.056555,
            0.054913,
            0.055685,
            0.053636,
            0.052499,
            0.046524,
            0.052799,
            0.047567,
            0.059323,
            0.11261,
            0.15994,
            0.3148,
            0.39984,
            0.38667,
            0.39681,
            0.39448,
            0.30777,
            0.23475,
            0.22072,
            0.27041,
            0.27935,
            0.31593,
            0.29267,
            0.13512,
            0.061255,
            0.045667,
            0.036788,
            0.034939,
            0.038623,
            0.034629,
            0.037119,
            0.043915,
            0.054018,
            0.0556,
            0.066525,
            0.075103,
            0.077973,
            0.078951,
            0.092916,
            0.13305,
            0.17965,
            0.23399,
            0.25057,
            0.27034,
            0.26015,
            0.10252,
            0.072492,
            0.050626,
            0.037344,
            0.03855,
            0.047449,
            0.047344,
            0.053266,
            0.068593,
            0.10038,
            0.13512,
            0.18258,
            0.21403,
            0.25525,
            0.25216,
            0.22919,
            0.18927,
            0.056949,
            0.04328,
            0.027957,
            0.029497,
            0.032176,
            0.036019,
            0.044007,
            0.04617,
            0.044617,
            0.037363,
            0.037387,
            0.049054,
            0.075929,
            0.094391,
            0.10548,
            0.1118,
            0.10334,
            0.0858,
            0.05154,
            0.037711,
            0.030343,
            0.027077,
            0.031865,
            0.038311,
            0.054153,
            0.065513,
            0.07693,
            0.08404,
            0.097186,
            0.10716,
            0.11011,
            0.12173,
            0.15666,
            0.25349,
            0.4195,
            0.53638,
            0.60974,
            0.64298,
            0.63464,
            0.48433,
            0.24484,
            0.23847,
            0.30193,
            0.32895,
            0.32372,
            0.29363,
            0.19165,
            0.14435,
            0.11713,
            0.1,
            0.081268,
            0.054475,
            0.042299,
            0.044495,
            0.076197,
            0.15405,
            0.36267,
            0.47825,
            0.50851,
            0.52514,
            0.4671,
            0.22102,
            0.11644,
            0.089978,
            0.060673,
            0.047342,
            0.037402,
            0.032817,
            0.031805,
            0.030549,
            0.039626,
            0.063464,
            0.12642,
            0.21723,
            0.33998,
            0.39027,
            0.39423,
            0.37661,
            0.2944,
            0.13466,
            0.09892,
            0.042067,
            0.033146,
            0.029871,
            0.032922,
            0.0383,
            0.060522,
            0.09723,
            0.14025,
            0.21892,
            0.31892,
            0.34415,
            0.35778,
            0.35429,
            0.36495,
            0.44042,
            0.94573,
            1.0096,
            1.0816,
            1.0033,
            0.13081,
            0.13554,
            0.10086,
            0.08984,
            0.11735,
            0.29149,
            0.35688,
            0.40329,
            0.44457,
            0.40342,
            0.10269,
            0.11377,
            0.074173,
            0.055799,
            0.057368,
            0.065423,
            0.088836,
            0.11562,
            0.17858,
            0.19727,
            0.19219,
            0.18694,
            0.13879,
            0.093241,
            0.055173,
            0.036037,
            0.036424,
            0.03533,
            0.03801,
            0.04384,
            0.054409,
            0.05304,
            0.048001,
            0.046503,
            0.050584,
            0.052639,
            0.047522,
            0.038964,
            0.03053,
            0.024433,
            0.02844,
            0.027825,
            0.032209,
            0.043182,
            0.042493,
            0.051713,
            0.052481,
            0.058723,
            0.05611,
            0.069252,
            0.082269,
            0.1061,
            0.139,
            0.16581,
            0.18647,
            0.19249,
            0.19807,
            0.19798,
            0.18847,
            0.18125,
            0.17907,
            0.15999,
            0.13121,
            0.08561,
            0.057051,
            0.035316,
            0.029613,
            0.030028,
            0.031089,
            0.033668,
            0.032634,
            0.03601,
            0.037908,
            0.038801,
            0.039446,
            0.045942,
            0.053926,
            0.067659,
            0.19991,
            0.26483,
            0.43245,
            0.52171,
            0.53955,
            0.52786,
            0.35702,
            0.2417,
            0.20574,
            0.1897,
            0.17069,
            0.16382,
            0.15503,
            0.11665,
            0.068671,
            0.051299,
            0.049976,
            0.07261,
            0.094824,
            0.13901,
            0.29741,
            0.26551,
            0.54695,
            0.85056,
            1.1311,
            1.1768,
            1.1331,
            0.49594,
            0.49301,
            0.44221,
            0.38609,
            0.55521,
            0.87191,
            1.2262,
            1.2688,
            1.1904,
            1.0209,
            0.28249,
            0.22961,
            0.14205,
            0.16089,
            0.193,
            0.22328,
            0.22968,
            0.21515,
            0.14388,
            0.094077,
            0.052228,
            0.10438,
            0.051317,
            0.042177,
            0.042542,
            0.043268,
            0.045905,
            0.051777,
            0.046227,
            0.041111,
            0.040449,
            0.045262,
            0.057878,
            0.066905,
            0.073998,
            0.092054,
            0.12068,
            0.19233,
            0.2667,
            0.31818,
            0.39572,
            0.40824,
            0.30957,
            0.17049,
            0.13735,
            0.090851,
            0.071857,
            0.061951,
            0.060997,
            0.058148,
            0.053836,
            0.053774,
            0.058299,
            0.084327,
            0.10943,
            0.12848,
            0.14153,
            0.14673,
            0.14985,
            0.16684,
            0.19486,
            0.316,
            0.40428,
            0.96023,
            1.2135,
            1.2133,
            1.111,
            0.22723,
            0.076542,
            0.056529,
            0.040307,
            0.042193,
            0.043785,
            0.047501,
            0.042279,
            0.047158,
            0.063926,
            0.08709,
            0.097208,
            0.11223,
            0.12566,
            0.12755,
            0.11666,
            0.11493,
            0.1498,
            0.20222,
            0.22165,
            0.21941,
            0.21495,
            0.20274,
            0.23348,
            0.27064,
            0.28955,
            0.24023,
            0.11696,
            0.08146,
            0.07204,
            0.077522,
            0.078589,
            0.077552,
            0.081987,
            0.089729,
            0.088508,
            0.086011,
            0.093465,
            0.13567,
            0.20736,
            0.38029,
            0.43645,
            0.4776,
            0.51449,
            0.53633,
            0.52882,
            0.21788,
            0.20564,
            0.19002,
            0.18523,
            0.20611,
            0.23577,
            0.24498,
            0.25214,
            0.2685,
            0.33674,
            0.34314,
            0.31367,
            0.1371,
            0.10614,
            0.068992,
            0.065328,
            0.06654,
            0.1055,
            0.16959,
            0.20397,
            0.21355,
            0.19314,
            0.16407,
            0.13718,
            0.13513,
            0.12985,
            0.12384,
            0.10112,
            0.091365,
            0.098594,
            0.11073,
            0.12283,
            0.13032,
            0.14098,
            0.1472,
            0.13438,
            0.10076,
            0.11072,
            0.1367,
            0.1851,
            0.22056,
            0.23643,
            0.25041,
            0.19042,
            0.15976,
            0.14008,
            0.12075,
            0.094278,
            0.082338,
            0.06303,
            0.06342,
            0.085006,
            0.11218,
            0.142,
            0.16256,
            0.18471,
            0.20105,
            0.20935,
            0.21549,
            0.28612,
            0.32952,
            0.33052,
            0.1578,
            0.1064,
            0.091215,
            0.080015,
            0.087212,
            0.11728,
            0.14484,
            0.17558,
            0.19682,
            0.21818,
            0.22754,
            0.24332,
            0.24507,
            0.26151,
            0.33708,
            0.37298,
            0.47071,
            0.66598,
            0.50345,
            0.17327,
            0.12887,
            0.052607,
            0.047345,
            0.052365,
            0.054763,
            0.061095,
            0.061757,
            0.066569,
            0.085621,
            0.093454,
            0.098515,
            0.10078,
            0.09855,
            0.092281,
            0.083677,
            0.082505,
            0.082273,
            0.086482,
            0.091103,
            0.098431,
            0.11134,
            0.13371,
            0.14223,
            0.14939,
            0.18643,
            0.19244,
            0.19665,
            0.18157,
            0.1511,
            0.10412,
            0.08528,
            0.10642,
            0.12415,
            0.16725,
            0.18002,
            0.1702,
            0.10215,
            0.074462,
            0.054308,
            0.044299,
            0.051715,
            0.053271,
            0.049705,
            0.055805,
            0.063162,
            0.074382,
            0.1021,
            0.13728,
            0.15897,
            0.14709,
            0.15658,
            0.14313,
            0.13272,
            0.090737,
            0.079417,
            0.080844,
            0.094925,
            0.12749,
            0.18658,
            0.24561,
            0.26299,
            0.27173,
            0.26521,
            0.18853,
            0.15249,
            0.13132,
            0.080509,
            0.057572,
            0.05859,
            0.059228,
            0.053291,
            0.058832,
            0.06702,
            0.084655,
            0.10391,
            0.15647,
            0.20406,
            0.22659,
            0.22992,
            0.2102,
            0.18979,
            0.14689,
            0.097597,
            0.078136,
            0.081929,
            0.089876,
            0.11022,
            0.13677,
            0.15813,
            0.18095,
            0.2409,
            0.35643,
            0.3819,
            0.38068,
            0.25121,
            0.1829,
            0.1293,
            0.092839,
            0.096611,
            0.10596,
            0.099156,
            0.093601,
            0.10781,
            0.12553,
            0.13833,
            0.14699,
            0.16196,
            0.20702,
            0.26518,
            0.28633,
            0.27793,
            0.27411,
            0.18841,
            0.14579,
            0.13065,
            0.14839,
            0.20805,
            0.22445,
            0.2206,
            0.20778,
            0.18716,
            0.16889,
            0.18,
            0.20853,
            0.2331,
            0.248,
            0.25726,
            0.24267,
            0.21113,
            0.20527,
            0.19998,
            0.21994,
            0.21469,
            0.19428,
            0.18275,
            0.17084,
            0.12387,
            0.086142,
            0.069786,
            0.066144,
            0.079773,
            0.085194,
            0.14106,
            0.19865,
            0.20584,
            0.1952,
            0.18389,
            0.13664,
            0.11546,
            0.10281,
            0.12034,
            0.11491,
            0.13932,
            0.16827,
            0.17516,
            0.17611,
            0.17716,
            0.15903,
            0.15522,
            0.15767,
            0.1598,
            0.13877,
            0.11368,
            0.10855,
            0.11735,
            0.13557,
            0.13094,
            0.12777,
            0.11392,
            0.13871,
            0.17698,
            0.21727,
            0.2622,
            0.26018,
            0.2567,
            0.19462,
            0.16022,
            0.12096,
            0.11982,
            0.14396,
            0.14671,
            0.15154,
            0.17095,
            0.18451,
            0.22282,
            0.22478,
            0.23891,
            0.22836,
            0.19801,
            0.19903,
            0.13184,
            0.097507,
            0.1051,
            0.12011,
            0.14319,
            0.17963,
            0.19952,
            0.20276,
            0.21374,
            0.18029,
            0.16117,
            0.15634,
            0.16166,
            0.16533,
            0.16531,
            0.17546,
            0.20072,
            0.20263,
            0.1971,
            0.16071,
            0.11674,
            0.096257,
            0.10802,
            0.12138,
            0.13678,
            0.16272,
            0.20133,
            0.23174,
            0.27539,
            0.30176,
            0.29167,
            0.2463,
            0.23716,
            0.14917,
            0.12364,
            0.12872,
            0.12422,
            0.11242,
            0.11993,
            0.12469,
            0.11107,
            0.10456,
            0.090986,
            0.092347,
            0.10593,
            0.11821,
            0.1332,
            0.13584,
            0.12795,
            0.12038,
            0.11234,
            0.1225,
            0.12546,
            0.12982,
            0.14854,
            0.16544,
            0.14573,
            0.13359,
            0.13845,
            0.1375,
            0.13727,
            0.12223,
            0.11819,
            0.11538,
            0.11318,
            0.10768,
            0.087991,
            0.084131,
            0.086027,
            0.085838,
            0.086883,
            0.080773,
            0.082537,
            0.091956,
            0.094817,
            0.10435,
            0.10053,
            0.092417,
            0.089419,
            0.082481,
            0.079419,
            0.076606,
            0.084279,
            0.080305,
            0.083278,
            0.095312,
            0.11041,
            0.11594,
            0.12545,
            0.11075,
            0.12644,
            0.1412,
            0.13847,
            0.1261,
            0.12412,
            0.11485,
            0.12146,
            0.12768,
            0.13146,
            0.12224,
            0.12284,
            0.10783,
            0.097836,
            0.11551,
            0.11896,
            0.12872,
            0.11996,
            0.1149,
            0.12722,
            0.13601,
            0.1328,
            0.14391,
            0.14532,
            0.12942,
            0.11847,
            0.11226,
            0.095895,
            0.089308,
            0.086934,
            0.077693,
            0.089035,
            0.12238,
            0.099007,
            0.094126,
            0.10834,
            0.10263,
            0.093314,
            0.081576,
            0.082301,
            0.077176,
            0.081456,
            0.084471,
            0.08673,
            0.083715,
            0.085437,
            0.088217,
            0.094235,
            0.1007,
            0.10392,
            0.10648,
            0.10927,
            0.10628,
            0.10745,
            0.1248,
            0.12219,
            0.11545,
            0.13825,
            0.12942,
            0.12141,
            0.086721,
            0.085953,
            0.11645,
            0.11819,
            0.11569,
            0.13348,
            0.12005,
            0.11218,
            0.10853,
            0.098747,
            0.11516,
            0.12092,
            0.11889,
            0.13283,
            0.15829,
            0.16431,
            0.15541,
            0.15851,
            0.14088,
            0.10224,
            0.085385,
            0.10111,
            0.098633,
            0.10067,
            0.10213,
            0.099071,
            0.09816,
            0.11088,
            0.10533,
            0.10968,
            0.10725,
            0.10333,
            0.10605,
            0.1223,
            0.12481,
            0.10676,
            0.11469,
            0.12048,
            0.087419,
            0.081617,
            0.087293,
            0.082592,
            0.077259,
            0.093267,
            0.081894,
            0.094496,
            0.0944,
            0.10423,
            0.11521,
            0.10986,
            0.1238,
            0.14152,
            0.16333,
            0.16902,
            0.14887,
            0.10867,
            0.095994,
            0.080992,
            0.075689,
            0.085114,
            0.07951,
            0.077293,
            0.089592,
            0.10056,
            0.094028,
            0.10362,
            0.10617,
            0.11115,
            0.092656,
            0.10864,
            0.13236,
            0.12539,
            0.13601,
            0.13484,
            0.13242,
            0.089726,
            0.091189,
            0.084289,
            0.093423,
            0.096774,
            0.099869,
            0.10962,
            0.092196,
            0.098152,
            0.087321,
            0.099212,
            0.095752,
            0.11192,
            0.091761,
            0.09787,
            0.10255,
            0.11759,
            0.13677,
            0.1382,
            0.13887,
            0.13041,
            0.13708,
            0.15949,
            0.12205,
            0.10082,
            0.079381,
            0.096721,
            0.096046,
            0.090824,
            0.096057,
            0.09056,
            0.10109,
            0.099138,
            0.099933,
            0.11332,
            0.10579,
            0.11206,
            0.09434,
            0.1055,
            0.10744,
            0.09835,
            0.075067,
            0.076492,
            0.075233,
            0.071966,
            0.082593,
            0.079304,
            0.07396,
            0.092861,
            0.10213,
            0.13928,
            0.13745,
            0.1361,
            0.11513,
            0.10184,
            0.10076,
            0.08555,
            0.096099,
            0.11283,
            0.12998,
            0.11612,
            0.11174,
            0.10686,
            0.085328,
            0.096071,
            0.092501,
            0.11914,
            0.10219,
            0.12534,
            0.11818,
            0.13479,
            0.14254,
            0.12967,
            0.14247,
            0.15103,
            0.15611,
            0.10645,
            0.10712,
            0.079897,
            0.086708,
            0.10781,
            0.10403,
            0.096261,
            0.11033,
            0.12076,
            0.091847,
            0.099857,
            0.10177,
            0.10274,
            0.10941,
            0.11185,
            0.11063,
            0.11811,
            0.12567,
            0.14927,
            0.1404,
            0.16622,
            0.23105,
            0.20822,
            0.24566,
            0.1885,
            0.1017,
            0.094332,
            0.096816,
            0.099117,
            0.088826,
            0.11105,
            0.10255,
            0.11095,
            0.11254,
            0.12101,
            0.10216,
            0.10761,
            0.095337,
            0.12032,
            0.11806,
            0.099912,
            0.12364,
            0.11004,
            0.11818,
            0.13565,
            0.13941,
            0.12529,
            0.11868,
            0.11017,
            0.11455,
            0.114,
            0.12809,
            0.10797,
            0.11959,
            0.11993,
            0.10507,
            0.11013,
            0.1198,
            0.10663,
            0.10953,
            0.11345,
            0.10861,
            0.12542,
            0.12372,
            0.1384,
            0.1288,
            0.10835,
            0.10994,
            0.11195,
            0.10578,
            0.11872,
            0.12624,
            0.12857,
            0.12924,
            0.12277,
            0.12008,
            0.13996,
            0.12376,
            0.14212,
            0.16026,
            0.15926,
            0.18523,
            0.16134,
            0.16539,
            0.18002,
            0.16671,
            0.1589,
            0.17548,
            0.17202
          ],
          [
            43.76,
            56.86,
            47.65,
            49.48,
            43.21,
            43.28,
            38.67,
            48.29,
            29.96,
            43.1,
            37.92,
            28.48,
            38.09,
            31.69,
            32.77,
            39.72,
            43.95,
            61.76,
            64.31,
            117.49,
            35.86,
            40.47,
            50.85,
            55.7,
            45.02,
            66.14,
            55.55,
            80.29,
            57.33,
            161.44,
            9317.87,
            219.41,
            142.77,
            58.95,
            79.17,
            66.72,
            77.57,
            54.73,
            92.35,
            83.83,
            50.11,
            42.67,
            58.27,
            46.71,
            42.06,
            41.11,
            25.86,
            27.39,
            36.14,
            22.4,
            20.26,
            18.15,
            20.61,
            70.58,
            78.74,
            29.69,
            46.31,
            36.03,
            45.12,
            45.06,
            45.95,
            38.68,
            38.25,
            40.57,
            39.88,
            54.13,
            57.05,
            53.88,
            43.36,
            41.2,
            39.37,
            27.19,
            42.68,
            52.46,
            43.07,
            29.2,
            25.51,
            36.53,
            39.6,
            35.39,
            23.66,
            24.67,
            26.34,
            31.44,
            28.67,
            27.1,
            28.02,
            21.5,
            22.12,
            20.0,
            25.6,
            24.4,
            30.14,
            27.0,
            29.12,
            34.06,
            29.76,
            36.96,
            34.51,
            39.05,
            29.2,
            26.42,
            25.94,
            24.5,
            26.17,
            27.15,
            25.41,
            16.48,
            27.23,
            22.44,
            23.26,
            20.79,
            26.57,
            26.59,
            26.26,
            25.17,
            23.5,
            19.14,
            17.48,
            20.23,
            20.68,
            25.57,
            44.34,
            29.73,
            35.6,
            43.78,
            41.39,
            30.29,
            27.41,
            29.58,
            29.46,
            30.95,
            23.5,
            23.41,
            26.92,
            23.75,
            26.89,
            36.43,
            21.18,
            14.9,
            12.77,
            12.05,
            12.75,
            12.61,
            15.16,
            18.35,
            20.55,
            19.93,
            24.79,
            28.35,
            32.24,
            38.84,
            36.19,
            1277.71,
            54.47,
            55.65,
            53.37,
            61.86,
            83.07,
            72.04,
            56.28,
            53.01,
            31.1,
            52.38,
            49.03,
            31.37,
            46.05,
            29.12,
            30.83,
            33.54,
            34.99,
            34.82,
            46.57,
            43.3,
            67.11,
            73.59,
            97.83,
            57.13,
            85.03,
            66.57,
            55.12,
            34.8,
            56.39,
            45.26,
            44.94,
            31.79,
            44.89,
            25.86,
            33.08,
            30.09,
            23.08,
            26.71,
            27.92,
            42.15,
            39.93,
            42.49,
            22.58,
            26.58,
            23.65,
            24.51,
            19.88,
            21.86,
            22.46,
            25.94,
            33.82,
            51.85,
            29.44,
            30.81,
            25.1,
            25.68,
            34.31,
            26.88,
            18.88,
            22.78,
            30.56,
            31.31,
            20.06,
            23.34,
            26.51,
            27.11,
            25.57,
            27.78,
            33.02,
            30.35,
            26.77,
            31.06,
            25.04,
            15.51,
            19.09,
            16.43,
            26.42,
            10.15,
            10.73,
            11.51,
            9.67,
            14.11,
            17.89,
            19.76,
            19.82,
            33.09,
            43.51,
            51.09,
            41.63,
            41.54,
            29.82,
            32.92,
            42.53,
            41.85,
            47.82,
            53.96,
            41.92,
            39.79,
            37.22,
            26.14,
            40.7,
            48.85,
            38.71,
            45.3,
            43.26,
            26.87,
            27.05,
            32.47,
            31.24,
            22.21,
            29.35,
            41.24,
            21.11,
            25.8,
            35.15,
            56.82,
            52.14,
            519.31,
            46.2,
            57.68,
            51.0,
            75.15,
            47.53,
            57.26,
            59.8,
            46.74,
            43.56,
            100.16,
            78.74,
            60.18,
            74.1,
            36.8,
            50.61,
            35.92,
            41.04,
            42.64,
            27.98,
            37.96,
            30.71,
            27.48,
            28.17,
            26.91,
            34.76,
            31.93,
            32.61,
            34.17,
            36.26,
            37.66,
            34.27,
            27.36,
            28.33,
            19.11,
            16.42,
            19.44,
            21.83,
            20.05,
            23.69,
            35.91,
            23.25,
            25.51,
            45.69,
            59.32,
            40.41,
            39.71,
            31.5,
            22.39,
            35.81,
            21.53,
            31.62,
            28.98,
            23.74,
            29.56,
            20.62,
            14.88,
            17.95,
            17.0,
            22.17,
            25.11,
            14.88,
            13.6,
            12.93,
            12.53,
            10.7,
            9.83,
            11.23,
            20.84,
            37.16,
            17.0,
            13.96,
            15.48,
            13.69,
            9.62,
            9.51,
            17.67,
            12.25,
            15.25,
            19.88,
            27.24,
            30.68,
            16.88,
            26.04,
            34.5,
            15.64,
            9.98,
            9.58,
            16.36,
            18.91,
            17.24,
            12.1,
            18.8,
            21.51,
            11.94,
            11.57,
            20.28,
            27.82,
            25.55,
            38.54,
            45.91,
            31.69,
            34.99,
            43.73,
            32.9,
            23.41,
            28.53,
            26.08,
            21.99,
            23.01,
            20.34,
            18.2,
            19.17,
            18.33,
            17.25,
            16.21,
            15.33,
            27.07,
            26.55,
            11.75,
            9.49,
            20.15,
            10.53,
            11.28,
            12.67,
            17.78,
            16.43,
            10.91,
            6.87,
            9.35,
            12.56,
            20.83,
            15.63,
            17.18,
            20.03,
            22.25,
            25.8,
            26.3,
            25.1,
            20.04,
            16.95,
            16.79,
            14.72,
            17.2,
            15.77,
            16.55,
            16.66,
            15.53,
            18.27,
            23.03,
            27.83,
            16.56,
            12.17,
            16.54,
            16.87,
            19.0,
            35.93,
            25.81,
            15.38,
            7.69,
            12.46,
            23.57,
            28.66,
            31.56,
            21.3,
            24.59,
            40.3,
            29.42,
            25.61,
            22.85,
            18.43,
            21.1,
            17.86,
            15.73,
            15.4,
            22.53,
            31.02,
            13.06,
            13.73,
            19.95,
            13.84,
            12.17,
            7.66,
            10.06,
            10.35,
            11.22,
            19.02,
            56.51,
            20.26,
            15.0,
            16.96,
            15.8,
            17.93,
            21.12,
            23.46,
            22.38,
            22.61,
            84.08,
            26.08,
            28.12,
            39.77,
            37.02,
            37.73,
            25.82,
            22.57,
            27.72,
            31.63,
            44.24,
            20.07,
            19.9,
            17.03,
            16.03,
            17.13,
            14.96,
            15.14,
            26.76,
            21.6,
            19.77,
            15.51,
            12.3,
            9.83,
            6.95,
            11.17,
            14.35,
            22.57,
            32.37,
            53.29,
            15.58,
            21.46,
            23.47,
            22.72,
            20.7,
            19.53,
            22.7,
            19.69,
            20.38,
            19.3,
            17.61,
            26.19,
            19.62,
            20.5,
            11.68,
            11.3,
            10.27,
            8.69,
            8.89,
            26.21,
            37.5,
            21.3,
            8.49,
            13.31,
            8.78,
            17.16,
            7.49,
            9.81,
            15.8,
            16.12,
            10.93,
            8.76,
            18.26,
            12.02,
            18.38,
            48.39,
            56.77,
            37.6,
            21.85,
            21.88,
            8.73,
            55.03,
            17.74,
            73.69,
            30.1,
            36.75,
            10.69,
            14.96,
            32.48,
            21.35,
            10.32,
            8.22,
            17.99,
            15.12,
            31.99,
            20.49,
            20.36,
            20.08,
            20.61,
            23.94,
            22.55,
            18.8,
            32.67,
            18.18,
            14.33,
            10.44,
            10.26,
            9.68,
            9.61,
            25.6,
            36.33,
            39.42,
            16.39,
            17.07,
            17.94,
            42.52,
            22.83,
            42.11,
            21.01,
            16.93,
            29.98,
            54.92,
            55.91,
            39.7,
            11.93,
            9.22,
            18.14,
            21.79,
            16.03,
            24.2,
            25.91,
            37.4,
            16.85,
            17.49,
            21.27,
            22.84,
            37.23,
            24.3,
            23.71,
            16.11,
            34.63,
            23.8,
            21.17,
            17.7,
            18.32,
            15.59,
            21.26,
            22.35,
            24.2,
            15.24,
            16.34,
            14.86,
            14.69,
            14.16,
            13.46,
            17.3,
            39.8,
            43.97,
            64.5,
            105.13,
            57.59,
            28.36,
            32.65,
            8.29,
            11.19,
            18.56,
            59.33,
            74.5,
            26.64,
            33.31,
            16.11,
            13.2,
            16.9,
            15.25,
            18.5,
            14.98,
            30.2,
            23.05,
            19.25,
            20.26,
            44.17,
            59.89,
            50.68,
            45.58,
            27.49,
            11.48,
            20.96,
            24.62,
            26.21,
            20.42,
            25.81,
            12.0,
            28.69,
            22.57,
            11.07,
            12.88,
            13.76,
            15.55,
            11.43,
            14.14,
            11.88,
            11.98,
            11.82,
            15.98,
            15.55,
            12.96,
            18.34,
            19.14,
            49.79,
            49.63,
            63.13,
            34.62,
            22.94,
            8.04,
            10.56,
            16.91,
            29.07,
            10.25,
            14.89,
            19.08,
            7.63,
            14.78,
            18.1,
            67.5,
            44.05,
            13.07,
            20.05,
            18.1,
            13.72,
            16.35,
            13.55,
            19.51,
            31.71,
            11.94,
            11.15,
            9.79,
            9.8,
            9.89,
            25.89,
            48.25,
            41.82,
            26.35,
            6.94,
            17.06,
            21.63,
            50.24,
            22.96,
            13.36,
            13.96,
            13.91,
            14.13,
            20.96,
            19.54,
            29.41,
            43.86,
            45.98,
            35.43,
            11.16,
            14.74,
            23.53,
            21.74,
            17.78,
            39.51,
            17.88,
            15.86,
            19.01,
            26.11,
            25.81,
            24.44,
            16.63,
            22.07,
            13.26,
            14.1,
            29.82,
            20.18,
            16.55,
            8.78,
            8.24,
            15.68,
            19.61,
            22.35,
            16.94,
            14.68,
            16.38,
            14.3,
            23.44,
            20.88,
            20.54,
            14.68,
            10.91,
            8.35,
            9.87,
            8.45,
            9.99,
            26.62,
            34.13,
            18.28,
            17.99,
            6.38,
            6.78,
            13.9,
            44.11,
            18.24,
            6.53,
            9.88,
            5.73,
            12.2,
            21.1,
            24.55,
            16.11,
            9.05,
            15.71,
            20.02,
            19.62,
            11.98,
            15.36,
            33.6,
            46.84,
            16.31,
            6.32,
            6.52,
            10.56,
            33.44,
            28.93,
            37.45,
            18.37,
            18.61,
            12.91,
            13.82,
            14.29,
            14.42,
            13.95,
            13.68,
            28.56,
            30.91,
            36.13,
            20.62,
            13.19,
            11.17,
            16.11,
            29.02,
            53.7,
            24.74,
            20.06,
            14.67,
            15.91,
            14.37,
            15.12,
            33.55,
            28.1,
            37.04,
            35.82,
            14.88,
            5.76,
            5.94,
            8.8,
            16.84,
            38.14,
            20.72,
            6.88,
            11.74,
            29.72,
            16.36,
            19.92,
            21.27,
            16.72,
            48.13,
            32.39,
            20.56,
            10.74,
            7.99,
            30.91,
            19.16,
            20.16,
            18.96,
            10.31,
            14.82,
            13.06,
            26.96,
            32.79,
            11.99,
            11.14,
            15.69,
            20.93,
            17.85,
            21.27,
            13.21,
            12.91,
            13.82,
            15.21,
            12.81,
            19.77,
            18.49,
            15.58,
            14.42,
            11.1,
            11.38,
            11.0,
            15.88,
            16.0,
            14.22,
            16.31,
            15.0,
            18.31,
            13.57,
            13.57,
            12.63,
            16.6,
            10.87,
            10.79,
            10.23,
            12.34,
            20.53,
            25.19,
            17.94,
            12.79,
            10.8,
            6.92,
            6.73,
            6.86,
            6.44,
            12.07,
            15.31,
            21.34,
            25.84,
            18.28,
            12.68,
            13.15,
            14.9,
            13.89,
            14.67,
            17.24,
            14.32,
            13.12,
            12.64,
            11.92,
            12.13,
            21.87,
            28.95,
            52.11,
            48.83,
            43.92,
            22.72,
            14.81,
            9.16,
            18.95,
            43.94,
            33.97,
            15.6,
            6.69,
            10.33,
            18.78,
            18.26,
            23.08,
            21.61,
            12.13,
            16.25,
            26.31,
            24.49,
            45.8,
            34.12,
            27.36,
            61.75,
            38.96,
            16.74,
            11.05,
            28.11,
            12.85,
            18.73,
            16.28,
            8.34,
            19.95,
            25.54,
            8.41,
            5.74,
            25.74,
            39.34,
            63.11,
            32.91,
            21.95,
            24.12,
            16.18,
            10.43,
            18.18,
            24.87,
            31.07,
            30.92,
            15.18,
            56.81,
            27.92,
            11.7,
            12.43,
            11.4,
            11.56,
            10.78,
            19.73,
            19.38,
            12.13,
            15.39,
            18.0,
            9.73,
            9.36,
            20.85,
            9.43,
            9.26,
            7.16,
            6.6,
            9.04,
            8.71,
            27.96,
            25.33,
            19.19,
            17.32,
            13.24,
            11.55,
            12.06,
            10.89,
            11.34,
            20.8,
            17.7,
            10.29,
            10.5,
            8.75,
            7.41,
            7.33,
            9.21,
            14.31,
            24.64,
            30.24,
            30.07,
            16.0,
            5.31,
            10.91,
            22.87,
            26.94,
            76.45,
            35.48,
            13.37,
            13.9,
            12.2,
            15.1,
            13.54,
            11.48,
            14.59,
            14.77,
            15.39,
            8.24,
            8.08,
            8.18,
            7.89,
            11.01,
            23.8,
            12.01,
            6.77,
            7.8,
            10.58,
            11.9,
            13.26,
            8.01,
            9.85,
            28.13,
            25.69,
            17.38,
            14.76,
            9.82,
            9.53,
            9.42,
            13.51,
            8.87,
            9.06,
            9.54,
            14.31,
            21.25,
            31.06,
            18.85,
            7.22,
            8.1,
            9.17,
            8.96,
            17.57,
            33.04,
            20.54,
            11.99,
            7.4,
            7.1,
            8.97,
            8.43,
            8.7,
            13.05,
            7.4,
            9.74,
            19.14,
            47.55,
            28.3,
            13.86,
            13.03,
            10.62,
            20.94,
            8.87,
            6.85,
            14.35,
            16.43,
            12.07,
            9.06,
            7.94,
            7.49,
            14.92,
            18.1,
            9.47,
            11.73,
            8.1,
            8.37,
            11.73,
            7.55,
            11.34,
            16.0,
            12.13,
            14.94,
            27.38,
            23.12,
            16.82,
            12.2,
            9.48,
            15.85,
            8.45,
            13.96,
            18.63,
            17.19,
            14.53,
            10.22,
            23.47,
            18.82,
            15.44,
            10.19,
            8.74,
            7.26,
            7.4,
            6.96,
            15.15,
            25.11,
            8.1,
            17.16,
            61.37,
            21.22,
            12.69,
            10.99,
            15.14,
            20.84,
            20.39,
            18.79,
            12.9,
            12.16,
            11.44,
            10.41,
            13.04,
            19.89,
            38.0,
            36.95,
            10.7,
            14.47,
            26.43,
            47.22,
            43.24,
            20.91,
            16.11,
            16.0,
            11.24,
            11.27,
            11.57,
            11.21,
            13.53,
            12.11,
            8.72,
            9.51,
            8.73,
            9.72,
            9.66,
            10.85,
            9.73,
            9.5,
            11.9,
            9.12,
            9.08,
            13.82,
            10.67,
            8.63,
            9.72,
            7.66,
            6.74,
            11.2,
            16.85,
            23.1,
            18.46,
            28.61,
            17.98,
            25.49,
            25.82,
            31.64,
            22.81,
            14.31,
            13.08,
            17.71,
            13.64,
            20.76,
            25.56,
            12.09,
            11.96,
            10.21,
            11.61,
            15.69,
            22.88,
            10.18,
            7.92,
            12.17,
            16.96,
            19.11,
            11.08,
            21.6,
            22.25,
            33.96,
            27.4,
            13.76,
            14.73,
            12.05,
            17.09,
            23.72,
            20.7,
            12.59,
            20.31,
            15.24,
            29.6,
            19.73,
            14.05,
            17.57,
            28.1,
            16.6,
            23.4,
            17.33,
            15.95,
            7.42,
            12.06,
            15.24,
            16.94,
            14.26,
            10.68,
            11.2,
            11.69,
            12.98,
            19.46,
            24.23,
            21.27,
            19.92,
            27.03,
            15.7,
            9.68,
            18.52,
            33.7,
            21.03,
            12.41,
            10.49,
            10.81,
            10.84,
            11.22,
            12.11,
            11.85,
            13.06,
            9.41,
            8.81,
            8.91,
            9.4,
            18.14,
            17.83,
            22.86,
            20.5,
            23.09,
            19.67,
            17.67,
            22.91,
            13.17,
            7.69,
            9.45,
            9.42,
            8.57,
            8.9,
            10.37,
            16.44,
            16.41,
            7.28,
            7.38,
            7.86,
            7.67,
            9.48,
            8.56,
            7.57,
            8.08,
            8.22,
            10.61,
            12.95,
            25.12,
            11.44,
            13.25,
            13.16,
            11.43,
            22.01,
            28.76,
            25.05,
            12.17,
            19.06,
            17.73,
            16.61,
            10.73,
            11.24,
            11.57,
            12.61,
            13.31,
            13.47,
            12.32,
            8.89,
            8.93,
            8.93,
            9.15,
            11.61,
            11.1,
            11.15,
            11.87,
            11.0,
            10.63,
            9.57,
            9.57,
            10.49,
            9.96,
            23.35,
            25.99,
            29.43,
            7.7,
            11.64,
            16.2,
            19.83,
            16.61,
            10.63,
            10.68,
            16.39,
            9.45,
            9.83,
            18.87,
            13.01,
            16.75,
            7.57,
            7.78,
            14.83,
            19.67,
            24.06,
            20.18,
            22.96,
            21.72,
            16.74,
            12.41,
            20.3,
            9.63,
            10.86,
            17.72,
            15.08,
            9.33,
            9.86,
            9.46,
            10.12,
            9.48,
            9.44,
            13.79,
            10.34,
            22.15,
            23.53,
            14.59,
            12.59,
            16.55,
            12.42,
            11.56,
            10.56,
            9.18,
            8.26,
            13.44,
            15.87,
            16.36,
            21.4,
            20.01,
            20.0,
            16.54,
            20.63,
            21.85,
            11.56,
            9.33,
            17.96,
            12.66,
            11.97,
            12.97,
            13.09,
            15.35,
            16.81,
            11.27,
            10.59,
            11.46,
            14.19,
            11.88,
            11.23,
            10.79,
            11.38,
            10.6,
            10.51,
            10.28,
            10.74,
            11.09,
            10.26,
            10.87,
            11.3,
            11.59,
            15.1,
            11.85,
            12.49,
            13.98,
            14.09,
            14.58,
            13.86,
            13.78,
            14.45,
            14.27,
            14.1,
            12.67,
            13.53,
            14.11,
            13.26,
            16.32,
            14.48,
            14.72,
            15.81,
            14.79,
            15.95,
            19.41,
            18.42,
            18.56,
            12.42,
            11.67,
            12.98,
            11.97,
            11.1,
            11.11,
            13.73,
            12.04,
            14.71,
            12.43,
            12.38,
            11.86,
            12.46,
            14.91,
            13.39,
            14.57,
            17.99,
            17.98,
            15.15,
            14.59,
            15.03,
            17.83,
            16.28,
            13.42,
            14.63,
            16.23,
            16.15,
            17.86,
            20.54,
            18.79,
            14.19,
            17.53,
            16.32,
            20.58,
            19.9,
            14.42,
            14.16,
            16.36,
            13.81,
            14.23,
            15.98,
            15.61,
            15.76,
            16.1,
            15.31,
            16.04,
            17.21,
            23.63,
            14.87,
            14.82,
            13.47,
            13.88,
            13.3,
            13.17,
            16.63,
            14.54,
            12.35,
            17.35,
            14.58,
            18.73,
            20.21,
            21.1,
            15.01,
            17.34,
            16.4,
            18.09,
            13.94,
            16.4,
            12.82,
            14.04,
            13.52,
            15.64,
            13.71,
            12.89,
            13.64,
            19.53,
            17.91,
            17.36,
            16.33,
            14.72,
            18.04,
            18.04,
            16.12,
            14.98,
            14.7,
            14.68,
            15.7,
            15.45,
            17.64,
            16.23,
            14.29,
            14.91,
            14.38,
            14.41,
            15.14,
            14.04,
            15.28,
            15.02,
            13.79,
            15.45,
            16.7,
            18.0,
            16.05,
            17.39,
            18.54,
            21.34,
            17.6,
            18.71,
            22.4,
            18.91,
            20.94,
            19.68,
            16.07,
            12.47,
            13.49,
            23.25,
            21.24,
            15.11,
            17.23,
            17.02,
            23.71,
            27.35,
            21.24,
            19.11,
            23.44,
            29.34,
            18.27,
            19.54,
            15.18,
            15.45,
            17.22,
            24.47,
            42.05,
            22.38,
            24.81,
            19.11,
            20.67,
            17.16,
            24.3,
            18.12,
            16.69,
            16.22,
            15.48,
            15.57,
            17.94,
            15.36,
            18.48,
            16.09,
            20.11,
            37.9,
            18.1,
            19.38,
            17.1,
            17.21,
            24.61,
            30.59,
            35.28,
            15.15,
            20.0,
            18.81,
            16.35,
            20.54,
            19.7,
            23.06,
            22.6,
            18.2,
            24.41,
            27.65,
            36.69,
            17.56,
            18.89,
            17.11,
            15.43,
            15.98,
            18.52,
            15.47,
            17.12,
            16.52,
            19.07,
            20.02,
            32.11,
            36.27,
            18.98,
            25.82,
            20.4,
            27.91,
            18.82,
            17.79,
            17.46,
            21.28,
            20.17,
            17.94,
            26.31,
            45.83,
            17.52,
            17.12,
            30.06,
            19.62,
            16.06,
            16.33,
            18.63,
            17.68,
            17.71,
            27.86,
            17.24,
            25.38,
            16.26,
            14.08,
            14.93,
            14.92,
            13.75,
            14.61,
            16.58,
            16.61,
            22.53,
            24.65,
            29.46,
            16.38,
            17.46,
            17.4,
            16.03,
            15.35,
            19.46,
            19.0,
            18.79,
            17.18,
            15.67,
            15.49,
            17.78,
            14.99,
            15.39,
            15.7,
            15.16,
            23.35,
            25.03,
            23.47,
            16.91,
            29.95,
            18.0,
            20.63,
            17.98,
            22.46,
            20.25,
            16.21,
            17.39,
            27.08,
            16.6,
            16.41,
            19.4,
            18.35,
            19.6,
            16.73,
            15.95,
            18.48,
            19.94,
            15.75,
            36.46,
            16.73,
            15.91,
            18.66,
            15.43,
            17.25,
            15.92,
            18.56,
            18.9,
            18.48,
            15.76,
            15.22,
            16.34,
            17.08,
            16.23,
            17.99,
            21.38,
            20.07,
            17.21,
            15.07,
            15.62,
            45.04,
            39.8,
            22.66,
            17.48,
            21.61,
            17.73,
            16.61,
            14.75,
            17.73,
            15.84,
            14.66,
            18.19,
            16.9,
            16.75,
            23.38,
            20.58,
            21.04,
            18.45,
            18.8,
            13.5,
            14.38,
            13.05,
            15.15,
            22.47,
            15.08
          ]
        ]
      }
    },
    "003": {
      "common": {
        "heads": [
          "ERR-SYS"
        ],
        "units": [
          "PER-CENT"
        ],
        "data": [
          [
            5.0
          ]
        ]
      },
      "data": {
        "heads": [
          "EN",
          "DATA",
          "ERR-T"
        ],
        "units": [
          "EV",
          "B",
          "PER-CENT"
        ],
        "data": [
          [
            903.104,
            906.611,
            910.138,
            913.686,
            917.255,
            920.845,
            924.456,
            928.088,
            931.742,
            935.417,
            939.114,
            942.833,
            946.574,
            950.338,
            954.124,
            957.932,
            961.764,
            965.618,
            969.496,
            973.397,
            977.321,
            981.27,
            985.242,
            989.239,
            993.259,
            997.305,
            1001.37,
            1005.47,
            1009.59,
            1013.74,
            1017.91,
            1022.1,
            1026.33,
            1030.58,
            1034.85,
            1039.15,
            1043.48,
            1047.84,
            1052.22,
            1056.63,
            1061.07,
            1065.54,
            1070.04,
            1074.56,
            1079.11,
            1083.69,
            1088.3,
            1092.94,
            1097.61,
            1102.31,
            1107.04,
            1111.8,
            1116.6,
            1121.42,
            1126.27,
            1131.16,
            1136.07,
            1141.02,
            1146.0,
            1151.02,
            1156.07,
            1161.15,
            1166.26,
            1171.41,
            1176.59,
            1181.81,
            1187.06,
            1192.34,
            1197.66,
            1203.02,
            1208.42,
            1213.84,
            1219.31,
            1224.81,
            1230.35,
            1235.93,
            1241.55,
            1247.2,
            1252.9,
            1258.63,
            1264.4,
            1270.21,
            1276.06,
            1281.96,
            1287.89,
            1293.86,
            1299.88,
            1305.94,
            1312.04,
            1318.18,
            1324.37,
            1330.6,
            1336.87,
            1343.19,
            1349.56,
            1355.96,
            1362.42,
            1368.92,
            1375.47,
            1382.06,
            1388.7,
            1395.39,
            1402.13,
            1408.92,
            1415.76,
            1422.64,
            1429.58,
            1436.57,
            1443.61,
            1450.7,
            1457.84,
            1465.04,
            1472.29,
            1479.59,
            1486.95,
            1494.36,
            1501.83,
            1509.35,
            1516.93,
            1524.57,
            1532.27,
            1540.02,
            1547.84,
            1555.71,
            1563.64,
            1571.64,
            1579.69,
            1587.81,
            1595.99,
            1604.24,
            1612.54,
            1620.92,
            1629.36,
            1637.86,
            1646.43,
            1655.07,
            1663.77,
            1672.55,
            1681.39,
            1690.31,
            1699.3,
            1708.35,
            1717.48,
            1726.69,
            1735.97,
            1745.32,
            1754.75,
            1764.25,
            1773.84,
            1783.5,
            1793.24,
            1803.06,
            1812.96,
            1822.94,
            1833.01,
            1843.15,
            1853.39,
            1863.71,
            1874.11,
            1884.6,
            1895.19,
            1905.86,
            1916.62,
            1927.47,
            1938.41,
            1949.45,
            1960.58,
            1971.81,
            1983.13,
            1994.56,
            2006.08,
            2017.7,
            2029.42,
            2041.25,
            2053.18,
            2065.21,
            2077.35,
            2089.6,
            2101.95,
            2114.42,
            2126.99,
            2139.68,
            2152.48,
            2165.4,
            2178.44,
            2191.59,
            2204.86,
            2218.25,
            2231.77,
            2245.41,
            2259.17,
            2273.06,
            2287.08,
            2301.23,
            2315.52,
            2329.93,
            2344.48,
            2359.17,
            2373.99,
            2388.96,
            2404.07,
            2419.32,
            2434.71,
            2450.26,
            2465.95,
            2481.79,
            2497.79,
            2513.94,
            2530.25,
            2546.72,
            2563.35,
            2580.14,
            2597.1,
            2614.23,
            2631.53,
            2649.0,
            2666.64,
            2684.46,
            2702.46,
            2720.64,
            2739.0,
            2757.55,
            2776.3,
            2795.23,
            2814.35,
            2833.68,
            2853.2,
            2872.92,
            2892.85,
            2912.99,
            2933.34,
            2953.91,
            2974.69,
            2995.69,
            3016.91,
            3038.36,
            3060.04,
            3081.95,
            3104.1,
            3126.49,
            3149.12,
            3171.99,
            3195.12,
            3218.5,
            3242.14,
            3266.04,
            3290.21,
            3314.64,
            3339.35,
            3364.33,
            3389.6,
            3415.15,
            3440.99,
            3467.13,
            3493.56,
            3520.3,
            3547.34,
            3574.7,
            3602.38,
            3630.38,
            3658.71,
            3687.36,
            3716.36,
            3745.7,
            3775.39,
            3805.44,
            3835.84,
            3866.61,
            3897.75,
            3929.27,
            3961.17,
            3993.46,
            4026.15,
            4059.24,
            4092.75,
            4126.66,
            4161.0,
            4195.78,
            4230.98,
            4266.64,
            4302.75,
            4339.31,
            4376.35,
            4413.86,
            4451.85,
            4490.34,
            4529.33,
            4568.83,
            4608.84,
            4649.39,
            4690.47,
            4732.1,
            4774.29,
            4817.04,
            4860.37,
            4904.28,
            4948.8,
            4993.92,
            5039.66,
            5086.04,
            5133.05,
            5180.72,
            5229.06,
            5278.08,
            5327.79,
            5378.21,
            5429.34,
            5481.21,
            5533.82,
            5587.2,
            5641.35,
            5696.29,
            5752.04,
            5808.61,
            5866.02,
            5924.28,
            5983.42,
            6043.44,
            6104.38,
            6166.24,
            6229.04,
            6292.81,
            6357.56,
            6423.32,
            6490.1,
            6557.93,
            6626.83,
            6696.82,
            6767.92,
            6840.16,
            6913.56,
            6988.16,
            7063.96,
            7141.01,
            7219.32,
            7298.93,
            7379.86,
            7462.14,
            7545.81,
            7630.9,
            7717.43,
            7805.44,
            7894.96,
            7986.03,
            8078.69,
            8172.97,
            8268.91,
            8366.55,
            8465.93,
            8567.08,
            8670.07,
            8774.92,
            8881.68,
            8990.4,
            9101.13,
            9213.92,
            9328.82,
            9445.88,
            9565.16,
            9686.71,
            9810.59,
            9936.87,
            99956.3
          ],
          [
            0.1709,
            0.14873,
            0.12873,
            0.12625,
            0.15018,
            0.13247,
            0.14018,
            0.12805,
            0.13195,
            0.14154,
            0.13007,
            0.12237,
            0.12371,
            0.11547,
            0.10737,
            0.1416,
            0.13528,
            0.14071,
            0.13511,
            0.12856,
            0.1326,
            0.13366,
            0.14155,
            0.16255,
            0.18046,
            0.15776,
            0.16593,
            0.15625,
            0.16034,
            0.14718,
            0.14257,
            0.1319,
            0.13565,
            0.12856,
            0.12624,
            0.10155,
            0.1215,
            0.12954,
            0.11861,
            0.13807,
            0.11187,
            0.15907,
            0.19051,
            0.2053,
            0.18603,
            0.1626,
            0.14211,
            0.12698,
            0.136,
            0.13638,
            0.15369,
            0.15593,
            0.13891,
            0.1257,
            0.13654,
            0.14152,
            0.14772,
            0.14841,
            0.13528,
            0.14538,
            0.14799,
            0.14961,
            0.1626,
            0.15208,
            0.14934,
            0.14804,
            0.13504,
            0.13857,
            0.13231,
            0.15081,
            0.14334,
            0.1465,
            0.1466,
            0.15006,
            0.14628,
            0.15258,
            0.17365,
            0.16132,
            0.15021,
            0.1355,
            0.12743,
            0.12398,
            0.12575,
            0.16371,
            0.26236,
            0.19231,
            0.14867,
            0.15229,
            0.14688,
            0.1234,
            0.15069,
            0.12175,
            0.12886,
            0.12431,
            0.14811,
            0.13936,
            0.14262,
            0.13765,
            0.15246,
            0.16805,
            0.14223,
            0.13784,
            0.13483,
            0.1329,
            0.13442,
            0.13156,
            0.11392,
            0.12958,
            0.12812,
            0.11806,
            0.11369,
            0.13021,
            0.13159,
            0.135,
            0.13075,
            0.12984,
            0.14209,
            0.15491,
            0.16003,
            0.17716,
            0.19609,
            0.15508,
            0.13802,
            0.14325,
            0.13894,
            0.1246,
            0.11166,
            0.12212,
            0.12525,
            0.13976,
            0.14622,
            0.15212,
            0.15204,
            0.13329,
            0.12735,
            0.12589,
            0.12966,
            0.14533,
            0.13935,
            0.14613,
            0.13738,
            0.15484,
            0.13705,
            0.12544,
            0.12122,
            0.11426,
            0.11897,
            0.12781,
            0.13927,
            0.16013,
            0.15551,
            0.16686,
            0.14274,
            0.12204,
            0.12101,
            0.13404,
            0.13376,
            0.12816,
            0.12728,
            0.12445,
            0.12483,
            0.12469,
            0.12271,
            0.12728,
            0.10986,
            0.10866,
            0.10971,
            0.11007,
            0.11437,
            0.10858,
            0.12047,
            0.11949,
            0.12517,
            0.11983,
            0.13416,
            0.10495,
            0.11106,
            0.12432,
            0.12121,
            0.11617,
            0.11991,
            0.1205,
            0.12358,
            0.11789,
            0.1363,
            0.13052,
            0.12474,
            0.13614,
            0.14993,
            0.16042,
            0.16273,
            0.1587,
            0.14789,
            0.14212,
            0.14732,
            0.12778,
            0.11687,
            0.10826,
            0.10796,
            0.11293,
            0.117,
            0.11304,
            0.10299,
            0.11523,
            0.11298,
            0.10743,
            0.1182,
            0.10786,
            0.10292,
            0.095763,
            0.088167,
            0.086113,
            0.091512,
            0.083521,
            0.086487,
            0.081002,
            0.087464,
            0.087936,
            0.086975,
            0.10228,
            0.098079,
            0.10561,
            0.098237,
            0.11023,
            0.10858,
            0.094614,
            0.10838,
            0.097328,
            0.086872,
            0.090082,
            0.091528,
            0.078262,
            0.094067,
            0.086323,
            0.096782,
            0.10896,
            0.098578,
            0.10384,
            0.10483,
            0.12196,
            0.13744,
            0.12324,
            0.099882,
            0.1008,
            0.10099,
            0.099008,
            0.10428,
            0.090593,
            0.087054,
            0.093678,
            0.09186,
            0.092646,
            0.084072,
            0.089596,
            0.10501,
            0.087359,
            0.086269,
            0.088231,
            0.074917,
            0.07709,
            0.072321,
            0.06668,
            0.07813,
            0.06839,
            0.078658,
            0.064355,
            0.075716,
            0.070686,
            0.083752,
            0.086127,
            0.084381,
            0.077316,
            0.082184,
            0.077168,
            0.087726,
            0.077112,
            0.079512,
            0.078813,
            0.069854,
            0.077999,
            0.088169,
            0.095856,
            0.080623,
            0.08295,
            0.087796,
            0.087506,
            0.068674,
            0.089838,
            0.093363,
            0.092556,
            0.079087,
            0.075163,
            0.077108,
            0.086059,
            0.078341,
            0.063336,
            0.0795,
            0.081208,
            0.079262,
            0.076803,
            0.075604,
            0.087725,
            0.088045,
            0.088475,
            0.09701,
            0.090186,
            0.086725,
            0.084807,
            0.071795,
            0.086228,
            0.082947,
            0.087142,
            0.069916,
            0.0747,
            0.082542,
            0.073437,
            0.075513,
            0.071809,
            0.070212,
            0.084054,
            0.081198,
            0.072933,
            0.065239,
            0.058537,
            0.04525,
            0.038675,
            0.043957,
            0.057691,
            0.070528,
            0.086637,
            0.092443,
            0.0924,
            0.090749,
            0.093305,
            0.09581,
            0.10765,
            0.11099,
            0.097314,
            0.094979,
            0.085166,
            0.08668,
            0.099708,
            0.11109,
            0.10328,
            0.12052,
            0.12059,
            0.11012,
            0.11343,
            0.10837,
            0.10414,
            0.096562,
            0.087981,
            0.085477,
            0.079965,
            0.06763,
            0.072343,
            0.074989,
            0.098496,
            0.11242,
            0.11856,
            0.11719,
            0.11363,
            0.011315
          ],
          [
            16.17,
            15.94,
            16.94,
            20.05,
            15.74,
            16.62,
            16.91,
            16.77,
            19.63,
            16.07,
            17.38,
            17.03,
            16.93,
            17.64,
            20.0,
            16.74,
            18.19,
            16.03,
            17.06,
            16.67,
            17.26,
            20.69,
            25.09,
            15.98,
            14.61,
            18.12,
            17.8,
            17.17,
            16.44,
            17.56,
            19.57,
            19.43,
            16.35,
            19.44,
            19.11,
            20.35,
            17.09,
            17.5,
            19.12,
            21.42,
            20.81,
            17.43,
            14.03,
            14.68,
            17.36,
            15.29,
            19.03,
            16.67,
            23.18,
            18.28,
            15.6,
            16.2,
            16.16,
            18.87,
            16.97,
            16.1,
            15.89,
            16.5,
            18.45,
            15.96,
            16.52,
            15.88,
            15.41,
            18.8,
            16.16,
            15.98,
            19.61,
            16.31,
            17.26,
            16.01,
            16.13,
            19.15,
            16.03,
            18.08,
            16.7,
            15.94,
            15.29,
            18.67,
            15.99,
            16.53,
            17.56,
            17.07,
            19.26,
            21.22,
            16.02,
            22.0,
            19.29,
            16.16,
            19.39,
            17.4,
            16.15,
            20.64,
            16.96,
            19.51,
            16.79,
            18.88,
            16.42,
            16.63,
            18.48,
            15.68,
            17.1,
            19.06,
            16.78,
            17.48,
            19.26,
            17.06,
            21.31,
            17.07,
            17.76,
            20.1,
            17.85,
            17.67,
            19.53,
            16.91,
            20.54,
            17.15,
            16.69,
            19.66,
            16.16,
            16.06,
            18.66,
            16.62,
            19.51,
            18.23,
            16.94,
            17.75,
            21.76,
            17.64,
            21.07,
            16.95,
            20.25,
            16.7,
            19.3,
            17.78,
            17.5,
            18.13,
            20.15,
            16.9,
            17.66,
            19.67,
            17.7,
            16.72,
            20.04,
            18.23,
            17.9,
            21.97,
            18.01,
            20.5,
            17.75,
            16.77,
            16.81,
            17.18,
            17.42,
            18.02,
            21.83,
            17.56,
            17.58,
            18.4,
            20.82,
            17.96,
            17.52,
            18.04,
            18.12,
            18.41,
            19.33,
            21.81,
            19.32,
            18.72,
            19.14,
            21.92,
            18.3,
            18.88,
            18.15,
            18.07,
            18.4,
            19.35,
            18.84,
            17.76,
            21.64,
            18.65,
            19.0,
            18.49,
            18.39,
            19.12,
            18.07,
            18.22,
            18.94,
            17.2,
            26.06,
            16.58,
            17.63,
            18.18,
            18.0,
            18.11,
            18.47,
            18.55,
            18.99,
            19.78,
            18.48,
            19.29,
            18.99,
            19.17,
            23.18,
            19.67,
            19.35,
            23.08,
            19.56,
            19.57,
            24.2,
            20.15,
            24.25,
            21.36,
            20.55,
            21.0,
            25.38,
            20.3,
            24.86,
            21.7,
            20.48,
            21.88,
            24.85,
            19.9,
            19.85,
            23.78,
            20.03,
            20.58,
            19.43,
            20.47,
            25.79,
            20.88,
            20.97,
            26.51,
            20.78,
            25.14,
            21.13,
            20.28,
            25.18,
            21.28,
            21.01,
            20.66,
            19.57,
            21.03,
            26.84,
            22.83,
            22.58,
            18.12,
            22.87,
            23.96,
            24.03,
            24.16,
            29.89,
            24.28,
            25.32,
            23.82,
            31.27,
            25.37,
            25.64,
            26.07,
            26.91,
            27.24,
            27.64,
            34.21,
            27.68,
            28.3,
            28.81,
            36.16,
            28.79,
            29.25,
            28.98,
            29.12,
            29.06,
            37.53,
            29.38,
            30.16,
            29.6,
            30.7,
            30.92,
            30.83,
            40.41,
            31.62,
            31.73,
            31.19,
            41.49,
            32.24,
            32.12,
            33.21,
            43.5,
            33.38,
            33.01,
            33.58,
            34.27,
            34.56,
            34.74,
            34.69,
            35.16,
            47.33,
            36.18,
            36.25,
            36.36,
            37.3,
            37.09,
            37.67,
            36.73,
            49.75,
            37.77,
            37.96,
            38.23,
            38.89,
            52.58,
            39.7,
            39.9,
            39.7,
            54.45,
            40.89,
            40.95,
            41.65,
            41.79,
            56.72,
            42.7,
            43.18,
            42.76,
            43.37,
            44.16,
            45.34,
            61.14,
            47.31,
            46.72,
            46.16,
            46.32,
            46.39,
            45.92,
            63.3,
            46.7,
            46.97,
            47.39,
            47.91,
            47.9,
            66.42,
            48.7,
            49.27,
            49.73,
            50.08,
            50.37,
            69.55,
            50.68,
            50.97,
            71.31,
            51.85,
            52.21,
            73.23,
            53.21,
            53.72,
            54.27,
            75.65,
            55.53,
            55.68,
            77.5,
            56.36,
            56.8,
            56.85,
            57.09,
            80.27,
            19.65
          ]
        ]
      }
    },
    "004": {
      "common": {
        "heads": [
          "ERR-SYS"
        ],
        "units": [
          "PER-CENT"
        ],
        "data": [
          [
            5.8
          ]
        ]
      },
      "data": {
        "heads": [
          "EN",
          "DATA",
          "ERR-T"
        ],
        "units": [
          "EV",
          "B",
          "PER-CENT"
        ],
        "data": [
          [
            102021.0,
            104151.0,
            106347.0,
            108614.0,
            110955.0,
            113371.0,
            115868.0,
            118448.0,
            121115.0,
            123873.0,
            126727.0,
            129680.0,
            132738.0,
            135905.0,
            139186.0,
            142588.0,
            146117.0,
            149778.0,
            153578.0,
            157525.0,
            161626.0,
            165889.0,
            170323.0,
            174937.0,
            179741.0,
            184746.0,
            189963.0,
            195403.0,
            201082.0,
            207011.0,
            213206.0,
            219684.0,
            226461.0,
            233557.0,
            240991.0,
            248787.0,
            256967.0,
            265556.0,
            274584.0,
            284080.0,
            294078.0,
            307808.0,
            312251.0,
            316791.0,
            321431.0,
            326174.0,
            331022.0,
            335979.0,
            341049.0,
            346234.0,
            351538.0,
            356964.0,
            362518.0,
            368202.0,
            374021.0,
            379979.0,
            386080.0,
            392329.0,
            398732.0,
            405292.0,
            412016.0,
            418908.0,
            425975.0,
            433222.0,
            440655.0,
            448282.0,
            456108.0,
            464141.0,
            472388.0,
            480856.0,
            489555.0,
            498491.0,
            507675.0,
            517114.0,
            526820.0,
            536801.0,
            547068.0,
            557633.0,
            568507.0,
            579702.0,
            591231.0,
            603107.0,
            615344.0,
            627958.0,
            640964.0,
            654378.0,
            668217.0,
            682501.0,
            697246.0,
            712476.0,
            728209.0,
            744469.0,
            761280.0,
            778667.0,
            796657.0,
            815277.0,
            834557.0,
            854530.0,
            875228.0,
            896687.0,
            918945.0,
            942043.0,
            966022.0,
            990928.0,
            1016810.0,
            1043720.0,
            1071710.0,
            1100840.0,
            1131180.0,
            1162790.0,
            1195740.0,
            1230120.0,
            1265990.0,
            1303460.0,
            1342620.0,
            1383570.0,
            1426420.0,
            1471290.0,
            1518320.0,
            1567630.0,
            1619390.0,
            1673750.0,
            1730900.0,
            1791020.0,
            1854340.0,
            1921070.0,
            1991460.0,
            2065800.0,
            2144380.0,
            2227530.0,
            2315610.0,
            2409020.0,
            2508200.0,
            2613630.0,
            2725850.0,
            2845460.0,
            2973110.0
          ],
          [
            0.011721,
            0.012677,
            0.0099246,
            0.0096802,
            0.010626,
            0.011003,
            0.010716,
            0.01005,
            0.013751,
            0.012451,
            0.010045,
            0.014448,
            0.01618,
            0.014071,
            0.013826,
            0.017238,
            0.012723,
            0.011282,
            0.0094731,
            0.013585,
            0.014337,
            0.011954,
            0.011514,
            0.013516,
            0.010546,
            0.012979,
            0.016616,
            0.012078,
            0.0093665,
            0.016749,
            0.017927,
            0.015334,
            0.0166,
            0.016142,
            0.015437,
            0.017654,
            0.01576,
            0.020999,
            0.018918,
            0.021066,
            0.021984,
            0.023583,
            0.024554,
            0.025313,
            0.026225,
            0.026886,
            0.024697,
            0.0264,
            0.023863,
            0.023286,
            0.02766,
            0.036374,
            0.037378,
            0.035077,
            0.036542,
            0.034256,
            0.039654,
            0.037301,
            0.040419,
            0.040621,
            0.042408,
            0.041527,
            0.043911,
            0.05367,
            0.057873,
            0.055701,
            0.051442,
            0.05647,
            0.06196,
            0.067783,
            0.067455,
            0.072437,
            0.069261,
            0.077185,
            0.096549,
            0.085772,
            0.079437,
            0.091531,
            0.10337,
            0.11491,
            0.11918,
            0.12992,
            0.1402,
            0.1527,
            0.1676,
            0.18834,
            0.18585,
            0.20914,
            0.22183,
            0.27206,
            0.33018,
            0.35878,
            0.38436,
            0.38766,
            0.48636,
            0.53771,
            0.60426,
            0.70209,
            0.78052,
            0.87081,
            0.93458,
            0.95861,
            1.0311,
            1.157,
            1.323,
            1.3482,
            1.2987,
            1.3875,
            1.4384,
            1.503,
            1.5126,
            1.4718,
            1.4289,
            1.6024,
            1.6461,
            1.5504,
            1.5905,
            1.5133,
            1.4609,
            1.4149,
            1.3931,
            1.5577,
            1.6304,
            1.5624,
            1.4579,
            1.5192,
            1.4551,
            1.6242,
            1.6759,
            1.6867,
            1.6578,
            1.5663,
            1.4909,
            1.403,
            1.4179,
            1.597,
            1.6139
          ],
          [
            23.68,
            20.43,
            33.26,
            24.15,
            27.37,
            23.06,
            31.81,
            25.65,
            23.85,
            19.61,
            22.0,
            22.07,
            18.39,
            25.58,
            23.46,
            34.65,
            20.23,
            17.28,
            23.04,
            29.58,
            19.06,
            21.16,
            18.08,
            15.75,
            18.37,
            14.15,
            16.7,
            16.85,
            22.05,
            16.7,
            19.62,
            17.69,
            14.4,
            15.12,
            18.31,
            13.45,
            17.06,
            12.95,
            12.04,
            11.9,
            13.02,
            12.75,
            11.27,
            14.98,
            13.08,
            11.62,
            11.36,
            14.65,
            15.73,
            13.12,
            12.48,
            10.76,
            12.37,
            10.02,
            10.86,
            10.37,
            10.43,
            9.53,
            11.16,
            10.35,
            11.18,
            13.22,
            10.36,
            9.07,
            8.97,
            9.35,
            8.93,
            21.44,
            14.24,
            8.38,
            8.9,
            8.03,
            10.45,
            10.31,
            9.0,
            12.69,
            9.56,
            8.73,
            7.79,
            7.45,
            7.69,
            7.41,
            8.2,
            8.28,
            8.33,
            9.06,
            7.38,
            7.46,
            7.07,
            7.74,
            9.8,
            10.63,
            7.61,
            6.99,
            7.87,
            6.97,
            9.74,
            10.23,
            7.15,
            7.72,
            6.93,
            6.95,
            8.07,
            7.36,
            7.22,
            7.14,
            6.88,
            7.21,
            8.19,
            7.39,
            8.34,
            8.3,
            7.54,
            8.07,
            8.87,
            7.69,
            9.27,
            8.91,
            8.91,
            7.17,
            7.02,
            9.76,
            8.98,
            7.65,
            8.27,
            7.18,
            8.14,
            8.02,
            7.17,
            8.13,
            7.89,
            7.91,
            7.66,
            7.77,
            6.97,
            7.59,
            7.82
          ]
        ]
      }
    }
  },
  "experimental_conditions": {
    "001": {
      "0": {
        "detector": [
          {
            "x4_code": "(SOLST)",
            "free_txt": [
              " Solid state detector in current recording mode.",
              "3 detectors at 15, 55 and 90 degrees with solid angles",
              " 0.00814, 0.1923 and 0.0687 sr, respectively."
            ]
          }
        ],
        "err-analys": [
          {
            "x4_code": "(ERR-T)",
            "free_txt": [
              " Includes both statistical and systematic",
              " uncertainties."
            ]
          },
          {
            "x4_code": "(ERR-SYS,,,1.0)",
            "free_txt": [
              " Systematic uncertainty."
            ]
          }
        ],
        "inc-source": [
          {
            "x4_code": "(EXPLO)",
            "free_txt": [
              " Pommard."
            ]
          }
        ],
        "method": [
          {
            "x4_code": "(TOF)",
            "free_txt": [
              " Time-of-flight. 214.43-m flight path."
            ]
          }
        ],
        "status": [
          {
            "x4_code": "(APRVD)",
            "free_txt": [
              " Approved by author."
            ]
          },
          {
            "x4_code": "(TABLE)",
            "free_txt": [
              " Data received on magnetic tape from P.A.",
              "         Seeger, August, 1970."
            ]
          }
        ]
      }
    },
    "002": {
      "0": {
        "comment": [
          {
            "x4_code": null,
            "free_txt": [
              "Data from about 90 keV to 10 keV were lost due to",
              " malfunction of every amplifier at 50 microsec after",
              " the burst."
            ]
          }
        ],
        "detector": [
          {
            "x4_code": "(SOLST)",
            "free_txt": [
              " Solid state detector in current recording mode.",
              "3 detectors at 15, 55 and 90 degrees with solid angles",
              " 0.00814, 0.1923 and 0.0687 sr, respectively."
            ]
          }
        ],
        "monitor": [
          {
            "x4_code": "(3-LI-6(N,T)2-HE-4,,SIG)",
            "free_txt": [
              " Flux relative to 6Li(n,alpha),",
              "  assuming 1/v dependence."
            ]
          }
        ]
      }
    },
    "003": {
      "0": {
        "detector": [
          {
            "x4_code": "(SOLST)",
            "free_txt": [
              " Solid state detector in current recording mode.",
              "3 detectors at 15 and 55 degrees with solid angles",
              " 0.00814 and 0.1923 sr, respectively."
            ]
          }
        ],
        "monitor": [
          {
            "x4_code": "(92-U-235(N,F),,SIG)",
            "free_txt": [
              " Interpolation was done by",
              "  comparison with previous measurements, see",
              "  Browne, et al., LA-4095 (1970)."
            ]
          }
        ]
      }
    },
    "004": {
      "0": {
        "detector": [
          {
            "x4_code": "(SOLST)",
            "free_txt": [
              " Solid state detector in current recording mode.",
              "3 detectors at 15 and 55 degrees with solid angles",
              " 0.00814 and 0.1923 sr, respectively."
            ]
          }
        ],
        "monit-ref": [
          {
            "x4_code": "(,W.G.Davey,J,NSE,32,35,1968)",
            "free_txt": []
          }
        ],
        "monitor": [
          {
            "x4_code": "(92-U-235(N,F),,SIG)",
            "free_txt": [
              " Flux relative to 235U fission",
              "  of Davey, modified to 55 degrees."
            ]
          }
        ]
      }
    }
  }
}