{
  "entry": "20807",
  "last_updated": "2006-07-20",
  "number_of_revisions": "3",
  "histories": [
    {
      "x4_code": "(781027C)",
      "free_txt": [
        " PDJ."
      ]
    },
    {
      "x4_code": "(790219E)",
      "free_txt": []
    }
  ],
  "bib_record": {
    "title": "-MEASUREMENT AND NORMALISATION OF THE RELATIVE PLUTONIUM-241 FISSION CROSS SECTION IN THE THERMAL AND LOW RESONANCE ENERGY REGION-.",
    "authors": [
      {
        "name": "C.Wagemans"
      },
      {
        "name": "A.J.Deruytter"
      }
    ],
    "institutes": [
      {
        "x4_code": "(2ZZZGEL)",
        "free_txt": [
          " A.J.DERUYTTER. CBNM."
        ]
      },
      {
        "x4_code": "(2BLGMOL)",
        "free_txt": [
          " C.WAGEMANS."
        ]
      }
    ],
    "references": {
      "0": [
        {
          "x4_code": "(J,NSE,60,44,7605)",
          "free_txt": [],
          "publication_year": "1976"
        },
        {
          "x4_code": "(P,NEANDC-162,3,7502)",
          "free_txt": [
            " PROGRESS REPT.ABST."
          ],
          "publication_year": "1975"
        },
        {
          "x4_code": "(P,NEANDC-172,3,7602)",
          "free_txt": [
            " PROGRESS REPT.ABST."
          ],
          "publication_year": "1976"
        },
        {
          "x4_code": "(J,ANE,2,541,7508)",
          "free_txt": [
            " WESCOTT G FACTOR."
          ],
          "publication_year": "1975"
        }
      ]
    },
    "facilities": {
      "0": [
        {
          "x4_code": "(LINAC)",
          "free_txt": [
            "  CBNM LINAC"
          ]
        }
      ]
    }
  },
  "data_tables": {
    "001": {
      "extra_information": {
        "correction": {
          "0": [
            {
              "x4_code": null,
              "free_txt": [
                ".BACKGROUND CORRECTION WAS MADE USING BLACK",
                " RESONANCE ABSORBERS,TYPICALLY 1.3 PC AT 0.10EV,",
                " 0.7 PC AT 0.25EV, AND 0.1 PC AT 14.7EV.",
                ".DATA IS CORRECTED FOR PU-239 CONTRIBUTION."
              ]
            }
          ]
        },
        "comment": {
          "0": [
            {
              "x4_code": null,
              "free_txt": [
                ".DATA FROM 0.02EV TO 0.5EV IS COMPILED UNDER",
                " THE REFERENCE 75WASH GB17 AS 20429."
              ]
            }
          ]
        },
        "err-analys": {
          "0": [
            {
              "x4_code": null,
              "free_txt": [
                ".NO UNCERTAINTY ESTIMATES ARE GIVEN.(STATISTICAL",
                " ERROR IS OF THE ORDER OF THE SQUARE ROOT OF THE",
                " CROSS SECTION IN BARNS- PDJ)"
              ]
            }
          ]
        },
        "facility": {
          "0": [
            {
              "x4_code": "(LINAC)",
              "free_txt": [
                "  CBNM LINAC"
              ]
            }
          ]
        },
        "inc-source": {
          "0": [
            {
              "x4_code": "(PHOTO)",
              "free_txt": [
                "  MERCURY COOLED URANIUM TARGET BOMBARDED",
                " WITH 70-MEV ELECTRONS. FAST NEUTRONS SLOWED BY TWO",
                " 4-CM THICK POLYETHYLENE SLABS ABOVE AND BELOW THE",
                " TARGET."
              ]
            }
          ]
        },
        "method": {
          "0": [
            {
              "x4_code": "(TOF  )",
              "free_txt": [
                " 8.1 METRE FLIGHT STATION. FOR ENERGY",
                " RANGE FROM 0.01 TO 20EV A 1 MICRO SEC BURST WIDTH",
                " WAS USED, AND FROM 0.15 TO 50EV A 20 N SEC WIDTH",
                " WAS USED."
              ]
            }
          ]
        },
        "monitor": {
          "0": [
            {
              "x4_code": "(5-B-10(N,A)3-LI-7,,SIG)",
              "free_txt": [
                " 10-B LAYER OF 104 MICRO G/CM*2",
                " BACK TO BACK WITH PU LAYER. ALPHAS RECORDED",
                " SIMULTANEOUSLY."
              ]
            },
            {
              "x4_code": "(94-PU-241(N,F),,SIG)",
              "free_txt": [
                " LOW ENERGY DATA WAS",
                " NORMALISED TO THE STANDARD 2200M/S CROSS SECTION"
              ]
            },
            {
              "x4_code": "(94-PU-241(N,F),,RI)",
              "free_txt": [
                " RELATIVE DATA NORMALISED TO",
                " A VALUE OF 1777 B.EV BETWEEN 3EV AND 12EV."
              ]
            }
          ]
        },
        "sample": {
          "0": [
            {
              "x4_code": null,
              "free_txt": [
                ".ELECTROSRAYED LAYER OF 1.08 MG/CM*2 ON 0.2MM AL.",
                " ISOTOPIC COMPOSITION 238-PU  0.011 ATOM PERCENT",
                "                      239-PU  1.046 ATOM PERCENT",
                "                      240-PU  3.657 ATOM PERCENT",
                "                      241-PU 93.432 ATOM PERCENT",
                "                      242-PU  1.854 ATOM PERCENT"
              ]
            }
          ]
        },
        "status": {
          "0": [
            {
              "x4_code": null,
              "free_txt": [
                ".NUMERICAL DATA FROM NSE 60 44 1976,AND MAGNETIC",
                " TAPE CORRESPONDING TO DATA OF FIG 1."
              ]
            }
          ]
        }
      }
    },
    "002": {
      "reaction": {
        "0": {
          "x4_code": "(94-PU-241(N,F),,RI)",
          "0": {
            "code": [
              "94-PU-241",
              [
                "N,F"
              ],
              ",,RI"
            ],
            "type": null,
            "target": "94-PU-241",
            "process": "N,F",
            "sf49": ",,RI",
            "sf4": null,
            "sf5": null,
            "sf6": "RI",
            "sf7": null,
            "sf8": null,
            "sf9": null
          },
          "type": null,
          "free_text": " FISSION RESONANCE INTEGRALS."
        }
      },
      "extra_information": {
        "status": {
          "0": [
            {
              "x4_code": "(DEP  )",
              "free_txt": [
                " DERIVED FROM MEASURED DIFFERENTIAL CROSS SECT."
              ]
            }
          ]
        }
      },
      "common": null,
      "data": {
        "heads": [
          "EN-MIN",
          "EN-MAX",
          "DATA"
        ],
        "units": [
          "EV",
          "EV",
          "B"
        ],
        "data": [
          [
            3.0,
            8.0,
            9.0,
            12.0,
            14.0,
            17.4,
            20.0,
            25.0,
            27.2,
            30.0,
            36.1,
            44.0
          ],
          [
            8.0,
            9.0,
            12.0,
            14.0,
            17.4,
            20.0,
            25.0,
            27.2,
            30.0,
            36.1,
            44.0,
            52.0
          ],
          [
            221.5,
            27.9,
            31.2,
            21.9,
            61.7,
            7.6,
            10.1,
            10.7,
            11.1,
            10.2,
            6.8,
            6.9
          ]
        ]
      }
    },
    "003": {
      "reaction": {
        "0": {
          "x4_code": "(94-PU-241(N,F),,INT)",
          "0": {
            "code": [
              "94-PU-241",
              [
                "N,F"
              ],
              ",,INT"
            ],
            "type": null,
            "target": "94-PU-241",
            "process": "N,F",
            "sf49": ",,INT",
            "sf4": null,
            "sf5": null,
            "sf6": "INT",
            "sf7": null,
            "sf8": null,
            "sf9": null
          },
          "type": null,
          "free_text": " FISSION INTEGRALS."
        }
      },
      "extra_information": {
        "status": {
          "0": [
            {
              "x4_code": "(DEP  )",
              "free_txt": [
                " ENERGY AVERAGED FROM DIFFERENTIAL DATA.",
                " MEAN VALUE OF MEASUREMENTS FROM TWO RUNS.TABLE 2."
              ]
            }
          ]
        }
      },
      "common": null,
      "data": {
        "heads": [
          "EN-MIN",
          "EN-MAX",
          "DATA"
        ],
        "units": [
          "EV",
          "EV",
          "B*EV"
        ],
        "data": [
          [
            3.0,
            8.0,
            9.0,
            12.0,
            14.0,
            17.4,
            20.0,
            25.0,
            27.2,
            30.0,
            36.1,
            44.0
          ],
          [
            8.0,
            9.0,
            12.0,
            14.0,
            17.4,
            20.0,
            25.0,
            27.2,
            30.0,
            36.1,
            44.0,
            52.0
          ],
          [
            1228.0,
            239.0,
            310.2,
            288.9,
            938.4,
            135.8,
            233.6,
            284.8,
            322.9,
            334.0,
            271.6,
            332.1
          ]
        ]
      }
    },
    "004": {
      "reaction": {
        "0": {
          "x4_code": "(94-PU-241(N,F),,SIG)",
          "0": {
            "code": [
              "94-PU-241",
              [
                "N,F"
              ],
              ",,SIG"
            ],
            "type": null,
            "target": "94-PU-241",
            "process": "N,F",
            "sf49": ",,SIG",
            "sf4": null,
            "sf5": null,
            "sf6": "SIG",
            "sf7": null,
            "sf8": null,
            "sf9": null
          },
          "type": null,
          "free_text": ""
        }
      },
      "extra_information": {
        "status": {
          "0": [
            {
              "x4_code": null,
              "free_txt": [
                ".MAGNETIC TAPE FROM AUTHOR."
              ]
            }
          ]
        }
      },
      "common": null,
      "data": {
        "heads": [
          "EN",
          "DATA"
        ],
        "units": [
          "EV",
          "B"
        ],
        "data": [
          [
            2.9855,
            3.008,
            3.0307,
            3.0536,
            3.0769,
            3.1004,
            3.1241,
            3.1482,
            3.1725,
            3.1971,
            3.222,
            3.2472,
            3.2726,
            3.2984,
            3.3245,
            3.3509,
            3.3776,
            3.4046,
            3.432,
            3.4597,
            3.4877,
            3.5161,
            3.5448,
            3.5739,
            3.6033,
            3.6331,
            3.6632,
            3.6938,
            3.7247,
            3.756,
            3.7877,
            3.8198,
            3.8524,
            3.8853,
            3.9187,
            3.9525,
            3.9867,
            4.0214,
            4.0565,
            4.0787,
            4.0876,
            4.0966,
            4.1056,
            4.1146,
            4.1236,
            4.1327,
            4.1418,
            4.151,
            4.1601,
            4.1693,
            4.1786,
            4.1878,
            4.1971,
            4.2064,
            4.2158,
            4.2251,
            4.2346,
            4.244,
            4.2535,
            4.263,
            4.2725,
            4.2821,
            4.2917,
            4.3013,
            4.311,
            4.3207,
            4.3304,
            4.3402,
            4.35,
            4.3598,
            4.3697,
            4.3796,
            4.3895,
            4.3995,
            4.4095,
            4.4196,
            4.4296,
            4.4397,
            4.4499,
            4.46,
            4.4703,
            4.4805,
            4.4908,
            4.5011,
            4.5114,
            4.5218,
            4.5323,
            4.5427,
            4.5532,
            4.5638,
            4.5743,
            4.5849,
            4.5956,
            4.6062,
            4.6169,
            4.6277,
            4.6385,
            4.6493,
            4.6602,
            4.6711,
            4.682,
            4.693,
            4.704,
            4.7151,
            4.7262,
            4.7373,
            4.7485,
            4.7597,
            4.771,
            4.7823,
            4.7936,
            4.805,
            4.8164,
            4.8279,
            4.8394,
            4.8509,
            4.8625,
            4.8741,
            4.8858,
            4.8975,
            4.9092,
            4.921,
            4.9329,
            4.9447,
            4.9567,
            4.9686,
            4.9806,
            4.9927,
            5.0048,
            5.0169,
            5.0291,
            5.0413,
            5.0536,
            5.0659,
            5.0783,
            5.0907,
            5.1031,
            5.1156,
            5.1282,
            5.1407,
            5.1534,
            5.1661,
            5.1788,
            5.1916,
            5.2044,
            5.2173,
            5.2302,
            5.2431,
            5.2562,
            5.2692,
            5.2823,
            5.2955,
            5.3087,
            5.322,
            5.3353,
            5.3486,
            5.3621,
            5.3755,
            5.389,
            5.4026,
            5.4162,
            5.4299,
            5.4436,
            5.4574,
            5.4712,
            5.4851,
            5.499,
            5.513,
            5.527,
            5.5411,
            5.5552,
            5.5694,
            5.5837,
            5.598,
            5.6123,
            5.6267,
            5.6412,
            5.6557,
            5.6703,
            5.685,
            5.6997,
            5.7144,
            5.7292,
            5.7441,
            5.759,
            5.774,
            5.7891,
            5.8042,
            5.8193,
            5.8346,
            5.8498,
            5.8652,
            5.8806,
            5.896,
            5.9116,
            5.9271,
            5.9428,
            5.9585,
            5.9743,
            5.9901,
            6.006,
            6.022,
            6.038,
            6.0541,
            6.0702,
            6.0864,
            6.1027,
            6.1191,
            6.1355,
            6.152,
            6.1685,
            6.1851,
            6.2018,
            6.2186,
            6.2354,
            6.2523,
            6.2692,
            6.2862,
            6.3033,
            6.3205,
            6.3377,
            6.355,
            6.3724,
            6.3898,
            6.4073,
            6.4249,
            6.4426,
            6.4603,
            6.4781,
            6.496,
            6.514,
            6.532,
            6.5501,
            6.5683,
            6.5865,
            6.6049,
            6.6233,
            6.6417,
            6.6603,
            6.679,
            6.6977,
            6.7165,
            6.7353,
            6.7543,
            6.7733,
            6.7925,
            6.8116,
            6.8309,
            6.8503,
            6.8697,
            6.8893,
            6.9089,
            6.9286,
            6.9484,
            6.9682,
            6.9882,
            7.0082,
            7.0283,
            7.0485,
            7.0688,
            7.0892,
            7.1097,
            7.1302,
            7.1509,
            7.1716,
            7.1924,
            7.2134,
            7.2344,
            7.2555,
            7.2767,
            7.298,
            7.3193,
            7.3408,
            7.3624,
            7.3841,
            7.4058,
            7.4277,
            7.4496,
            7.4717,
            7.4938,
            7.5161,
            7.5384,
            7.5609,
            7.5834,
            7.6061,
            7.6288,
            7.6517,
            7.6746,
            7.6977,
            7.7209,
            7.7441,
            7.7675,
            7.791,
            7.8146,
            7.8383,
            7.8621,
            7.886,
            7.91,
            7.9341,
            7.9584,
            7.9827,
            8.0072,
            8.0318,
            8.0565,
            8.0813,
            8.1062,
            8.1312,
            8.1564,
            8.1816,
            8.207,
            8.2325,
            8.2581,
            8.2839,
            8.3097,
            8.3357,
            8.3618,
            8.3881,
            8.4144,
            8.4409,
            8.4675,
            8.4942,
            8.5211,
            8.5481,
            8.5752,
            8.6024,
            8.6298,
            8.6573,
            8.6849,
            8.7127,
            8.7406,
            8.7686,
            8.7968,
            8.8251,
            8.8535,
            8.8821,
            8.9108,
            8.9397,
            8.9686,
            8.9978,
            9.0271,
            9.0565,
            9.0861,
            9.1158,
            9.1456,
            9.1756,
            9.2058,
            9.2361,
            9.2665,
            9.2971,
            9.3279,
            9.3588,
            9.3899,
            9.4211,
            9.4524,
            9.484,
            9.5156,
            9.5475,
            9.5795,
            9.6117,
            9.644,
            9.6765,
            9.7091,
            9.742,
            9.775,
            9.8081,
            9.8414,
            9.8749,
            9.9086,
            9.9424,
            9.9764,
            10.011,
            10.045,
            10.079,
            10.114,
            10.149,
            10.184,
            10.219,
            10.255,
            10.291,
            10.326,
            10.362,
            10.398,
            10.435,
            10.472,
            10.508,
            10.545,
            10.582,
            10.62,
            10.657,
            10.695,
            10.733,
            10.771,
            10.809,
            10.848,
            10.887,
            10.926,
            10.965,
            11.004,
            11.044,
            11.084,
            11.124,
            11.164,
            11.205,
            11.245,
            11.286,
            11.327,
            11.369,
            11.41,
            11.452,
            11.494,
            11.536,
            11.579,
            11.622,
            11.665,
            11.708,
            11.752,
            11.795,
            11.839,
            11.883,
            11.928,
            11.972,
            12.018,
            12.063,
            12.108,
            12.154,
            12.2,
            12.246,
            12.293,
            12.339,
            12.375,
            12.398,
            12.422,
            12.446,
            12.469,
            12.493,
            12.517,
            12.541,
            12.565,
            12.589,
            12.614,
            12.638,
            12.662,
            12.687,
            12.711,
            12.736,
            12.76,
            12.785,
            12.81,
            12.835,
            12.86,
            12.885,
            12.91,
            12.935,
            12.96,
            12.985,
            13.01,
            13.036,
            13.061,
            13.087,
            13.113,
            13.138,
            13.164,
            13.19,
            13.216,
            13.242,
            13.268,
            13.294,
            13.321,
            13.347,
            13.373,
            13.4,
            13.426,
            13.453,
            13.48,
            13.507,
            13.534,
            13.561,
            13.588,
            13.615,
            13.642,
            13.669,
            13.697,
            13.724,
            13.752,
            13.779,
            13.807,
            13.835,
            13.863,
            13.891,
            13.919,
            13.947,
            13.975,
            14.003,
            14.032,
            14.06,
            14.089,
            14.117,
            14.146,
            14.175,
            14.204,
            14.233,
            14.262,
            14.291,
            14.321,
            14.35,
            14.379,
            14.409,
            14.439,
            14.468,
            14.498,
            14.528,
            14.558,
            14.588,
            14.618,
            14.649,
            14.679,
            14.709,
            14.74,
            14.771,
            14.801,
            14.832,
            14.863,
            14.894,
            14.926,
            14.957,
            14.988,
            15.02,
            15.051,
            15.083,
            15.114,
            15.146,
            15.178,
            15.21,
            15.242,
            15.275,
            15.307,
            15.339,
            15.372,
            15.405,
            15.437,
            15.47,
            15.503,
            15.536,
            15.569,
            15.603,
            15.636,
            15.67,
            15.703,
            15.737,
            15.771,
            15.805,
            15.839,
            15.873,
            15.907,
            15.942,
            15.976,
            16.011,
            16.046,
            16.08,
            16.115,
            16.15,
            16.185,
            16.221,
            16.256,
            16.292,
            16.327,
            16.363,
            16.399,
            16.435,
            16.471,
            16.507,
            16.544,
            16.58,
            16.617,
            16.653,
            16.69,
            16.727,
            16.764,
            16.802,
            16.839,
            16.876,
            16.914,
            16.951,
            16.989,
            17.027,
            17.065,
            17.104,
            17.142,
            17.18,
            17.219,
            17.258,
            17.296,
            17.336,
            17.375,
            17.414,
            17.453,
            17.493,
            17.533,
            17.572,
            17.612,
            17.652,
            17.692,
            17.733,
            17.773,
            17.814,
            17.855,
            17.895,
            17.937,
            17.978,
            18.019,
            18.06,
            18.102,
            18.144,
            18.186,
            18.228,
            18.27,
            18.312,
            18.355,
            18.397,
            18.44,
            18.483,
            18.526,
            18.569,
            18.613,
            18.656,
            18.7,
            18.744,
            18.788,
            18.832,
            18.876,
            18.921,
            18.965,
            19.01,
            19.055,
            19.1,
            19.145,
            19.191,
            19.236,
            19.282,
            19.328,
            19.374,
            19.42,
            19.466,
            19.513,
            19.56,
            19.606,
            19.654,
            19.701,
            19.748,
            19.796,
            19.843,
            19.891,
            19.94,
            19.988,
            20.036,
            20.085,
            20.134,
            20.182,
            20.232,
            20.281,
            20.33,
            20.38,
            20.43,
            20.48,
            20.53,
            20.581,
            20.631,
            20.682,
            20.733,
            20.784,
            20.836,
            20.887,
            20.939,
            20.991,
            21.043,
            21.095,
            21.148,
            21.201,
            21.253,
            21.307,
            21.36,
            21.414,
            21.467,
            21.521,
            21.575,
            21.629,
            21.684,
            21.739,
            21.794,
            21.849,
            21.904,
            21.96,
            22.016,
            22.072,
            22.128,
            22.184,
            22.241,
            22.298,
            22.355,
            22.412,
            22.47,
            22.527,
            22.585,
            22.644,
            22.702,
            22.761,
            22.819,
            22.879,
            22.938,
            22.997,
            23.057,
            23.117,
            23.178,
            23.238,
            23.299,
            23.36,
            23.421,
            23.482,
            23.544,
            23.606,
            23.668,
            23.731,
            23.793,
            23.856,
            23.919,
            23.983,
            24.046,
            24.11,
            24.175,
            24.239,
            24.304,
            24.369,
            24.434,
            24.499,
            24.565,
            24.631,
            24.697,
            24.764,
            24.831,
            24.898,
            24.965,
            25.033,
            25.101,
            25.169,
            25.237,
            25.306,
            25.375,
            25.444,
            25.514,
            25.584,
            25.654,
            25.725,
            25.795,
            25.866,
            25.938,
            26.009,
            26.081,
            26.153,
            26.226,
            26.299,
            26.372,
            26.445,
            26.519,
            26.593,
            26.668,
            26.742,
            26.817,
            26.892,
            26.968,
            27.044,
            27.12,
            27.197,
            27.274,
            27.351,
            27.429,
            27.507,
            27.585,
            27.663,
            27.742,
            27.821,
            27.901,
            27.981,
            28.061,
            28.142,
            28.223,
            28.304,
            28.386,
            28.468,
            28.55,
            28.633,
            28.716,
            28.799,
            28.883,
            28.967,
            29.052,
            29.137,
            29.222,
            29.308,
            29.394,
            29.48,
            29.567,
            29.654,
            29.742,
            29.83,
            29.918,
            30.007
          ],
          [
            37.486,
            37.313,
            37.241,
            39.073,
            38.21,
            38.797,
            38.346,
            41.524,
            41.681,
            39.948,
            42.779,
            42.276,
            45.208,
            45.513,
            43.371,
            44.594,
            47.205,
            48.987,
            49.43,
            49.59,
            54.522,
            53.148,
            52.635,
            55.61,
            55.49,
            58.918,
            63.308,
            60.624,
            66.044,
            64.286,
            71.682,
            71.368,
            74.866,
            77.167,
            84.203,
            90.239,
            95.828,
            101.54,
            111.26,
            121.14,
            122.35,
            137.98,
            132.45,
            134.76,
            147.21,
            156.79,
            169.06,
            175.62,
            204.34,
            223.38,
            242.38,
            280.96,
            325.31,
            375.92,
            454.74,
            522.73,
            635.39,
            738.38,
            833.3,
            936.94,
            1042.5,
            1090.2,
            1074.8,
            1051.3,
            1005.3,
            906.06,
            825.08,
            734.24,
            650.96,
            566.23,
            500.03,
            454.44,
            416.96,
            389.46,
            385.71,
            360.24,
            348.82,
            344.79,
            348.69,
            357.77,
            360.22,
            375.15,
            404.28,
            416.52,
            426.49,
            442.88,
            457.36,
            470.97,
            486.41,
            481.65,
            492.84,
            479.03,
            461.88,
            436.56,
            409.69,
            379.54,
            330.32,
            292.88,
            258.07,
            220.49,
            181.52,
            147.13,
            128.5,
            108.22,
            90.956,
            77.158,
            68.518,
            61.832,
            51.422,
            45.005,
            48.446,
            44.761,
            42.779,
            43.28,
            40.405,
            44.95,
            46.566,
            46.946,
            55.374,
            55.07,
            57.219,
            55.688,
            61.61,
            66.626,
            68.856,
            67.648,
            69.207,
            77.272,
            81.016,
            78.256,
            80.559,
            85.488,
            87.773,
            90.816,
            91.556,
            96.985,
            101.42,
            106.05,
            112.09,
            105.52,
            116.2,
            118.51,
            121.9,
            119.56,
            127.35,
            127.89,
            140.46,
            138.09,
            145.14,
            153.24,
            160.99,
            158.28,
            160.37,
            157.88,
            164.62,
            170.7,
            184.36,
            186.38,
            189.45,
            199.23,
            204.99,
            207.49,
            214.06,
            219.45,
            220.35,
            219.78,
            234.8,
            233.38,
            244.18,
            247.3,
            256.6,
            268.14,
            269.55,
            270.45,
            275.34,
            284.2,
            290.17,
            307.87,
            313.68,
            323.43,
            315.89,
            333.12,
            344.21,
            333.63,
            353.46,
            360.94,
            359.03,
            365.66,
            380.09,
            387.06,
            390.81,
            391.86,
            411.72,
            405.96,
            410.24,
            422.93,
            426.97,
            422.01,
            419.04,
            435.36,
            434.53,
            442.92,
            436.6,
            435.28,
            445.18,
            430.99,
            427.83,
            438.07,
            451.48,
            427.01,
            433.53,
            419.69,
            427.35,
            429.99,
            421.0,
            414.06,
            408.86,
            391.46,
            396.98,
            405.91,
            399.04,
            385.85,
            385.66,
            375.46,
            377.64,
            362.58,
            356.41,
            349.7,
            351.63,
            341.2,
            336.97,
            333.31,
            336.27,
            316.83,
            328.98,
            324.62,
            318.79,
            324.04,
            313.99,
            321.53,
            319.23,
            322.15,
            344.62,
            334.8,
            354.44,
            381.28,
            413.1,
            461.13,
            523.37,
            577.17,
            647.81,
            720.18,
            776.93,
            770.81,
            767.83,
            701.06,
            634.44,
            559.51,
            473.2,
            420.72,
            358.78,
            311.11,
            279.76,
            255.13,
            234.45,
            215.59,
            206.09,
            189.19,
            187.98,
            171.61,
            175.13,
            167.08,
            164.44,
            159.64,
            146.14,
            146.99,
            142.17,
            141.91,
            143.53,
            135.74,
            135.83,
            128.59,
            125.63,
            128.29,
            122.54,
            117.07,
            116.6,
            119.17,
            115.41,
            117.22,
            118.68,
            108.08,
            118.65,
            116.77,
            120.29,
            115.09,
            111.55,
            112.67,
            109.98,
            109.61,
            101.91,
            107.55,
            108.99,
            110.1,
            103.27,
            106.5,
            103.61,
            108.78,
            106.95,
            108.61,
            112.69,
            113.6,
            115.08,
            120.56,
            127.15,
            133.07,
            143.43,
            160.86,
            185.67,
            215.63,
            272.87,
            349.42,
            442.23,
            557.89,
            661.44,
            690.21,
            663.99,
            564.99,
            433.57,
            339.01,
            245.23,
            194.75,
            171.31,
            151.67,
            142.27,
            142.13,
            130.1,
            135.11,
            133.08,
            131.96,
            134.2,
            138.63,
            134.93,
            145.15,
            142.89,
            148.84,
            149.28,
            159.31,
            169.0,
            165.96,
            169.18,
            178.42,
            191.17,
            197.28,
            209.42,
            216.64,
            221.11,
            228.35,
            221.57,
            195.81,
            176.36,
            149.86,
            135.89,
            142.55,
            156.49,
            174.63,
            187.0,
            191.92,
            220.25,
            221.0,
            217.52,
            225.96,
            215.02,
            207.11,
            198.81,
            186.44,
            173.21,
            166.72,
            155.27,
            146.39,
            133.64,
            124.35,
            112.46,
            102.22,
            95.213,
            87.334,
            81.212,
            69.544,
            68.361,
            62.113,
            55.688,
            53.246,
            50.269,
            51.583,
            52.755,
            50.271,
            47.326,
            45.471,
            43.891,
            36.424,
            38.213,
            32.458,
            27.461,
            27.863,
            26.739,
            22.845,
            24.309,
            23.99,
            23.148,
            21.523,
            21.865,
            21.945,
            20.203,
            20.87,
            20.757,
            20.321,
            21.821,
            22.284,
            22.938,
            22.437,
            25.003,
            23.925,
            22.089,
            23.432,
            22.871,
            25.785,
            27.614,
            33.143,
            33.315,
            37.575,
            38.657,
            44.731,
            47.797,
            47.242,
            51.293,
            54.714,
            65.327,
            73.683,
            82.763,
            91.45,
            109.14,
            128.51,
            145.25,
            166.01,
            176.15,
            195.72,
            204.08,
            222.71,
            219.15,
            212.89,
            201.77,
            187.14,
            166.45,
            150.92,
            131.04,
            118.14,
            99.203,
            84.309,
            78.885,
            74.561,
            75.196,
            72.575,
            79.591,
            87.432,
            107.99,
            131.73,
            183.34,
            262.35,
            352.76,
            456.21,
            575.98,
            664.74,
            693.09,
            670.39,
            593.39,
            480.9,
            381.81,
            259.44,
            183.06,
            117.49,
            86.715,
            62.25,
            50.068,
            43.081,
            42.442,
            39.58,
            39.531,
            33.171,
            30.211,
            35.648,
            32.809,
            34.974,
            32.723,
            38.476,
            35.069,
            38.375,
            38.556,
            45.308,
            44.904,
            52.32,
            55.582,
            63.195,
            67.122,
            75.729,
            84.884,
            99.949,
            108.36,
            131.78,
            166.39,
            208.51,
            264.92,
            340.19,
            473.05,
            645.08,
            856.0,
            1104.0,
            1384.6,
            1645.8,
            1792.1,
            1816.7,
            1723.1,
            1536.8,
            1273.2,
            1026.5,
            781.09,
            578.9,
            442.94,
            332.73,
            270.19,
            239.65,
            196.49,
            176.72,
            156.11,
            136.77,
            132.52,
            113.48,
            113.33,
            113.4,
            111.93,
            106.87,
            103.9,
            109.09,
            110.79,
            109.99,
            116.56,
            120.73,
            126.61,
            131.62,
            150.41,
            152.79,
            167.74,
            183.71,
            209.08,
            204.09,
            233.42,
            240.04,
            241.1,
            232.68,
            228.11,
            204.76,
            200.66,
            183.13,
            161.31,
            154.12,
            146.53,
            136.33,
            142.97,
            137.32,
            145.41,
            157.15,
            173.45,
            197.76,
            221.78,
            253.03,
            277.02,
            288.78,
            279.57,
            263.44,
            231.22,
            197.44,
            150.54,
            115.42,
            88.312,
            59.739,
            49.091,
            38.371,
            32.078,
            26.109,
            22.093,
            16.562,
            18.266,
            15.599,
            15.068,
            13.932,
            14.215,
            15.001,
            17.398,
            21.298,
            27.598,
            38.295,
            62.789,
            93.915,
            144.33,
            236.8,
            311.26,
            387.5,
            411.06,
            371.57,
            306.06,
            215.13,
            140.75,
            83.461,
            56.363,
            50.283,
            43.239,
            39.254,
            37.923,
            31.515,
            25.125,
            16.125,
            12.015,
            7.8201,
            4.4137,
            5.1814,
            3.8196,
            4.5859,
            2.265,
            3.6089,
            4.6603,
            4.2691,
            3.1125,
            2.7248,
            3.198,
            1.8574,
            2.9019,
            2.1364,
            2.8924,
            3.0773,
            2.599,
            2.0276,
            3.1567,
            3.0574,
            1.641,
            2.7655,
            2.4796,
            2.3818,
            2.8454,
            2.3739,
            2.2767,
            1.7143,
            1.9902,
            1.2444,
            2.7247,
            2.7202,
            3.2699,
            3.449,
            2.983,
            3.1619,
            3.8911,
            3.2432,
            2.9633,
            5.4256,
            7.0591,
            8.141,
            14.859,
            26.096,
            35.485,
            50.729,
            64.75,
            65.912,
            56.618,
            47.712,
            29.672,
            20.567,
            12.924,
            9.1482,
            5.6523,
            5.9104,
            7.0576,
            6.6019,
            6.4138,
            5.1635,
            5.1551,
            5.3232,
            3.9923,
            5.0417,
            5.4727,
            5.2883,
            7.7319,
            10.518,
            12.247,
            17.108,
            19.343,
            19.399,
            16.765,
            16.825,
            15.587,
            17.547,
            15.019,
            18.609,
            13.681,
            16.404,
            22.544,
            25.671,
            34.166,
            44.167,
            65.708,
            89.813,
            107.9,
            126.78,
            130.97,
            135.32,
            120.1,
            97.69,
            86.863,
            73.64,
            72.682,
            58.773,
            64.267,
            66.744,
            69.878,
            77.651,
            89.212,
            94.362,
            111.15,
            133.48,
            169.58,
            181.55,
            187.73,
            149.65,
            109.97,
            67.556,
            45.673,
            36.154,
            32.03,
            27.352,
            27.387,
            24.268,
            20.998,
            19.834,
            16.985,
            17.84,
            15.484,
            17.219,
            14.552,
            17.639,
            16.494,
            18.216,
            23.186,
            27.743,
            31.493,
            37.838,
            45.106,
            56.286,
            68.685,
            94.534,
            123.04,
            163.64,
            230.79,
            302.63,
            390.63,
            439.81,
            451.54,
            398.69,
            316.5,
            217.78,
            136.96,
            81.004,
            49.946,
            31.631,
            23.319,
            16.943,
            15.161,
            16.352,
            13.666,
            16.219,
            14.45,
            20.543,
            18.773,
            24.31,
            30.053,
            35.776,
            42.826,
            49.702,
            57.226,
            68.819,
            89.22,
            106.58,
            134.25,
            164.34,
            218.9,
            248.66,
            276.1,
            286.26,
            273.07,
            256.27,
            227.1,
            204.83,
            189.47,
            174.59,
            163.77,
            133.28,
            99.943,
            70.185,
            41.038,
            32.122
          ]
        ]
      }
    }
  }
}